iterationName,wID,aID,origText,rt,response,tangram,targetAudience,uttLengthWords,trial_index,time_elapsed,gameId,playerId,trial_type
comprehension,5ef0b80c783eb301cab78d7f,600d334e8f1fb84f0f053f96,,2090.570000000298,,,,,0,2104,,,html-keyboard-response
comprehension,5e886683524dca4f1853e20c,600d335a9cf6444a77ab3b49,,3594.7699999669567,,,,,0,3636,,,html-keyboard-response
comprehension,5ef0b80c783eb301cab78d7f,600d334e8f1fb84f0f053f96,,13593.115000003309,I consent to participate.,,,,1,15700,,,html-button-response
comprehension,5ef0b80c783eb301cab78d7f,600d334e8f1fb84f0f053f96,,3924.9850000051083,,,,,2,19626,,,html-keyboard-response
comprehension,5ef0b80c783eb301cab78d7f,600d334e8f1fb84f0f053f96,click the first one from the left,4907.484999996086,G,catch,catch,0,3,24536,catch,catch,html-button-response
comprehension,5e886683524dca4f1853e20c,600d335a9cf6444a77ab3b49,,10919.405000051484,I consent to participate.,,,,1,14563,,,html-button-response
comprehension,5e886683524dca4f1853e20c,600d335a9cf6444a77ab3b49,,2575.910000014119,,,,,2,17141,,,html-keyboard-response
comprehension,5f5bd68e85780739e6d82a32,600d334bf495d4400f2dbe9c,,6940.000000002328,,,,,0,6983,,,html-keyboard-response
comprehension,5ef0b80c783eb301cab78d7f,600d334e8f1fb84f0f053f96,click the first one from the left,5284.5499999966705,100,catch,catch,0,4,29823,catch,catch,html-slider-response
comprehension,5ef0b80c783eb301cab78d7f,600d334e8f1fb84f0f053f96,sitting person,5100.169999997888,H,F,ownGroup,2,5,34926,CbjGXYiEYK62c59ta,EiGsis3ca2vX9QLpE,html-button-response
comprehension,5e37fee32d2961000b0eacb7,600d3375ee4abe4f976c4cf7,,2019.5400000084192,,,,,0,2033,,,html-keyboard-response
comprehension,5e886683524dca4f1853e20c,600d335a9cf6444a77ab3b49,"the one with the tilted head and a lifted leg, with also the head pending out from him",9038.939999998547,A,A,ownGroup,18,3,26185,aLuopkgfJ8GHWfPNP,7vPD38TZf7F6AQSB3,html-button-response
comprehension,5ec5859b9bbabe5a62150be9,600d336fbeaa41294d22215a,,8896.990000037476,,,,,0,8923,,,html-keyboard-response
comprehension,5ec5859b9bbabe5a62150be9,600d336fbeaa41294d22215a,,2077.9099999926984,I consent to participate.,,,,1,11005,,,html-button-response
comprehension,5ef0b80c783eb301cab78d7f,600d334e8f1fb84f0f053f96,sitting person,4121.890000002168,79,F,ownGroup,2,6,39049,CbjGXYiEYK62c59ta,EiGsis3ca2vX9QLpE,html-slider-response
comprehension,5e886683524dca4f1853e20c,600d335a9cf6444a77ab3b49,"the one with the tilted head and a lifted leg, with also the head pending out from him",3289.1550000058487,83,A,ownGroup,18,4,29480,aLuopkgfJ8GHWfPNP,7vPD38TZf7F6AQSB3,html-slider-response
comprehension,5ef0b80c783eb301cab78d7f,600d334e8f1fb84f0f053f96,A woman in a dress kneeling towards right.,3646.164999998291,B,B,ownGroup,9,7,42698,tpY4W7eRoxEtupkmw,Q72XWrb8xmoDeJgP3,html-button-response
comprehension,5e886683524dca4f1853e20c,600d335a9cf6444a77ab3b49,click the first one from the left,4217.455000034533,G,catch,catch,0,5,33702,catch,catch,html-button-response
comprehension,5ef0b80c783eb301cab78d7f,600d334e8f1fb84f0f053f96,A woman in a dress kneeling towards right.,2169.770000000426,94,B,ownGroup,9,8,44869,tpY4W7eRoxEtupkmw,Q72XWrb8xmoDeJgP3,html-slider-response
comprehension,5e886683524dca4f1853e20c,600d335a9cf6444a77ab3b49,click the first one from the left,1847.8900000918657,100,catch,catch,0,6,35553,catch,catch,html-slider-response
comprehension,5e37fee32d2961000b0eacb7,600d3375ee4abe4f976c4cf7,,10636.869999929331,I consent to participate.,,,,1,12675,,,html-button-response
comprehension,5ec5859b9bbabe5a62150be9,600d336fbeaa41294d22215a,,8652.219999930821,,,,,2,19659,,,html-keyboard-response
comprehension,5e37fee32d2961000b0eacb7,600d3375ee4abe4f976c4cf7,,3401.079999981448,,,,,2,16077,,,html-keyboard-response
comprehension,5e886683524dca4f1853e20c,600d335a9cf6444a77ab3b49,mouse,6175.025000004098,B,B,otherGroup,1,7,41733,RfQj6i5FTEKewPtdP,ozxL7gp6r7bDGzetz,html-button-response
comprehension,5ec5859b9bbabe5a62150be9,600d336fbeaa41294d22215a,click the first one from the left,4705.38000005763,G,catch,catch,0,3,24368,catch,catch,html-button-response
comprehension,5e886683524dca4f1853e20c,600d335a9cf6444a77ab3b49,mouse,2184.0850000735372,9,B,otherGroup,1,8,43920,RfQj6i5FTEKewPtdP,ozxL7gp6r7bDGzetz,html-slider-response
comprehension,5e886683524dca4f1853e20c,600d335a9cf6444a77ab3b49,A flying goalkeeper with open arms,6117.434999905527,C,C,ownGroup,6,9,50042,76iJQ4QXdyAcYKseZ,NiKAGZngti7bqNjn2,html-button-response
comprehension,5ec5859b9bbabe5a62150be9,600d336fbeaa41294d22215a,click the first one from the left,8390.50999993924,100,catch,catch,0,4,32762,catch,catch,html-slider-response
comprehension,5e886683524dca4f1853e20c,600d335a9cf6444a77ab3b49,A flying goalkeeper with open arms,1446.669999975711,100,C,ownGroup,6,10,51492,76iJQ4QXdyAcYKseZ,NiKAGZngti7bqNjn2,html-slider-response
comprehension,5f5bd68e85780739e6d82a32,600d334bf495d4400f2dbe9c,,36793.99999999441,I consent to participate.,,,,1,43784,,,html-button-response
comprehension,5e37fee32d2961000b0eacb7,600d3375ee4abe4f976c4cf7,"the guy with both of his hands up, waving it around",16252.314999932423,C,C,otherGroup,11,3,32336,NLsYdbJ2XrBW64HqK,HuJDt7rLM3oPmxzQN,html-button-response
comprehension,5ec5859b9bbabe5a62150be9,600d336fbeaa41294d22215a,the one that looks like he is flying,5888.770000077784,C,C,otherGroup,8,5,38655,76iJQ4QXdyAcYKseZ,gR2G6xLFF4jLsksxJ,html-button-response
comprehension,5e886683524dca4f1853e20c,600d335a9cf6444a77ab3b49,"looks like a person dancing, with a square as a head and two triangles as hand and a foot on the right",6795.810000039637,G,G,otherGroup,22,11,58294,zEBta7eAuxvtkjmTX,t6ctfHQ7DEPmGFEYB,html-button-response
comprehension,5ef0b80c783eb301cab78d7f,600d334e8f1fb84f0f053f96,weird thing that doesnt look like a person some say that it is running and flying,23592.07000000606,G,G,ownGroup,16,9,68463,CbjGXYiEYK62c59ta,rQDvXHhRzEAAGu52K,html-button-response
comprehension,5e37fee32d2961000b0eacb7,600d3375ee4abe4f976c4cf7,"the guy with both of his hands up, waving it around",3832.1950000245124,69,C,otherGroup,11,4,36171,NLsYdbJ2XrBW64HqK,HuJDt7rLM3oPmxzQN,html-slider-response
comprehension,5e886683524dca4f1853e20c,600d335a9cf6444a77ab3b49,"looks like a person dancing, with a square as a head and two triangles as hand and a foot on the right",1374.9500000849366,69,G,otherGroup,22,12,59672,zEBta7eAuxvtkjmTX,t6ctfHQ7DEPmGFEYB,html-slider-response
comprehension,5f5bd68e85780739e6d82a32,600d334bf495d4400f2dbe9c,,6753.000000026077,,,,,2,50540,,,html-keyboard-response
comprehension,5ef0b80c783eb301cab78d7f,600d334e8f1fb84f0f053f96,weird thing that doesnt look like a person some say that it is running and flying,5310.069999999541,39,G,ownGroup,16,10,73775,CbjGXYiEYK62c59ta,rQDvXHhRzEAAGu52K,html-slider-response
comprehension,5e886683524dca4f1853e20c,600d335a9cf6444a77ab3b49,Sad man sitting looking leff,4773.719999939203,F,F,ownGroup,5,13,64451,cGNuegcWYpFzhERdS,s8yg6tepLJ69GuzxQ,html-button-response
comprehension,5ec5859b9bbabe5a62150be9,600d336fbeaa41294d22215a,the one that looks like he is flying,8239.034999976866,21,C,otherGroup,8,6,46897,76iJQ4QXdyAcYKseZ,gR2G6xLFF4jLsksxJ,html-slider-response
comprehension,5e886683524dca4f1853e20c,600d335a9cf6444a77ab3b49,Sad man sitting looking leff,1700.3650000551715,84,F,ownGroup,5,14,66154,cGNuegcWYpFzhERdS,s8yg6tepLJ69GuzxQ,html-slider-response
comprehension,5ef0b80c783eb301cab78d7f,600d334e8f1fb84f0f053f96,"tilted to left, both arms up",3952.1850000019185,C,C,ownGroup,6,11,77729,Ko3v7THD2dqefyTAx,n3Q4td6qCse5aSv9e,html-button-response
comprehension,5ec5859b9bbabe5a62150be9,600d336fbeaa41294d22215a,"a man sitting, facing left, the abstract one",4693.194999941625,F,G,otherGroup,8,7,51593,ytHtL6X7FZLgNXnib,TEYpETCKMpuRJN97o,html-button-response
comprehension,5ef0b80c783eb301cab78d7f,600d334e8f1fb84f0f053f96,"tilted to left, both arms up",2505.9699999983422,100,C,ownGroup,6,12,80237,Ko3v7THD2dqefyTAx,n3Q4td6qCse5aSv9e,html-slider-response
comprehension,5ec5859b9bbabe5a62150be9,600d336fbeaa41294d22215a,"a man sitting, facing left, the abstract one",1514.6899999817833,100,G,otherGroup,8,8,53110,ytHtL6X7FZLgNXnib,TEYpETCKMpuRJN97o,html-slider-response
comprehension,5e886683524dca4f1853e20c,600d335a9cf6444a77ab3b49,buddha or infant in a bed,6266.659999964759,H,H,ownGroup,6,15,72425,hXJrmsG9Q2uWDXN7T,ek7RGAsMfmiuKv9ZW,html-button-response
comprehension,5e886683524dca4f1853e20c,600d335a9cf6444a77ab3b49,buddha or infant in a bed,1652.144999941811,80,H,ownGroup,6,16,74081,hXJrmsG9Q2uWDXN7T,ek7RGAsMfmiuKv9ZW,html-slider-response
comprehension,5e37fee32d2961000b0eacb7,600d3375ee4abe4f976c4cf7,A standing person wearing a cloak and caring a backpack,14558.51000000257,D,D,ownGroup,10,5,50733,76iJQ4QXdyAcYKseZ,NiKAGZngti7bqNjn2,html-button-response
comprehension,5e37fee32d2961000b0eacb7,600d3375ee4abe4f976c4cf7,A standing person wearing a cloak and caring a backpack,1796.779999975115,61,D,ownGroup,10,6,52531,76iJQ4QXdyAcYKseZ,NiKAGZngti7bqNjn2,html-slider-response
comprehension,5e886683524dca4f1853e20c,600d335a9cf6444a77ab3b49,Looks like a rabbit sitting. It has a big black triangle with 90 degree angle on the lower part.,3704.2699999874458,E,E,otherGroup,20,17,77790,CjJsbbMomSi4dHiNp,XFHb4aQTy24MTYXyv,html-button-response
comprehension,5f5bd68e85780739e6d82a32,600d334bf495d4400f2dbe9c,man with the one leg up carrying a flag,16747.00000003213,A,A,otherGroup,9,3,67295,JP4KRrdASPaZ6Yooo,k6aatfn6D3cGqmLKj,html-button-response
comprehension,5ef0b80c783eb301cab78d7f,600d334e8f1fb84f0f053f96,"penguin with a backpack, one foot up one down",8528.684999997495,A,A,ownGroup,9,13,88767,ALPGtS424urRqjoB7,rquDbQbq4JWtwJAF3,html-button-response
comprehension,5e886683524dca4f1853e20c,600d335a9cf6444a77ab3b49,Looks like a rabbit sitting. It has a big black triangle with 90 degree angle on the lower part.,1400.054999976419,98,E,otherGroup,20,18,79193,CjJsbbMomSi4dHiNp,XFHb4aQTy24MTYXyv,html-slider-response
comprehension,5ef0b80c783eb301cab78d7f,600d334e8f1fb84f0f053f96,"penguin with a backpack, one foot up one down",2247.944999995525,100,A,ownGroup,9,14,91017,ALPGtS424urRqjoB7,rquDbQbq4JWtwJAF3,html-slider-response
comprehension,5ec5859b9bbabe5a62150be9,600d336fbeaa41294d22215a,"Looks like a man sitting sideways to the left, with his head slightly tilted forward",10135.104999993928,F,F,otherGroup,15,9,63248,wjwzCZqktezhoNwdn,SPX8pNAPj7f8RxfDg,html-button-response
comprehension,5ec5859b9bbabe5a62150be9,600d336fbeaa41294d22215a,"Looks like a man sitting sideways to the left, with his head slightly tilted forward",1452.504999935627,100,F,otherGroup,15,10,64703,wjwzCZqktezhoNwdn,SPX8pNAPj7f8RxfDg,html-slider-response
comprehension,5e886683524dca4f1853e20c,600d335a9cf6444a77ab3b49,"both arms to the left, standing on their knees",5753.04999994114,D,D,otherGroup,9,19,84950,Ko3v7THD2dqefyTAx,E5uTCaEvboyi9W2jE,html-button-response
comprehension,5e886683524dca4f1853e20c,600d335a9cf6444a77ab3b49,"both arms to the left, standing on their knees",1557.645000051707,80,D,otherGroup,9,20,86511,Ko3v7THD2dqefyTAx,E5uTCaEvboyi9W2jE,html-slider-response
comprehension,5ef0b80c783eb301cab78d7f,600d334e8f1fb84f0f053f96,"two triangles (or bunny ears) on top, one big triangle beneath",6398.0200000005425,E,E,ownGroup,11,15,97417,WYftRDkmrSjsHDx7x,dFXiFC9fEvXXFFqA9,html-button-response
comprehension,5f5bd68e85780739e6d82a32,600d334bf495d4400f2dbe9c,man with the one leg up carrying a flag,10724.999999976717,100,A,otherGroup,9,4,78025,JP4KRrdASPaZ6Yooo,k6aatfn6D3cGqmLKj,html-slider-response
comprehension,5ef0b80c783eb301cab78d7f,600d334e8f1fb84f0f053f96,"two triangles (or bunny ears) on top, one big triangle beneath",2192.1849999998813,100,E,ownGroup,11,16,99611,WYftRDkmrSjsHDx7x,dFXiFC9fEvXXFFqA9,html-slider-response
comprehension,5ec5859b9bbabe5a62150be9,600d336fbeaa41294d22215a,"looks like a person stood on one leg with the other leg out in front of them, also has a diamond shape on their back like they are carrying something.",8521.040000021458,A,A,otherGroup,31,11,73227,fbBEYS2xBiuER4yog,9uGM2BcYH4hk2uSzX,html-button-response
comprehension,5ec5859b9bbabe5a62150be9,600d336fbeaa41294d22215a,"looks like a person stood on one leg with the other leg out in front of them, also has a diamond shape on their back like they are carrying something.",2361.105000018142,100,A,otherGroup,31,12,75591,fbBEYS2xBiuER4yog,9uGM2BcYH4hk2uSzX,html-slider-response
comprehension,5e37fee32d2961000b0eacb7,600d3375ee4abe4f976c4cf7,Human looking on the right side,21161.364999949,F,E,otherGroup,6,7,73696,9wpj9KkiFEADFNfx8,seW6HvhD9zC4ToSZy,html-button-response
comprehension,5ef0b80c783eb301cab78d7f,600d334e8f1fb84f0f053f96,man standing with the hands in the front horizontially,8513.695000001462,D,D,otherGroup,9,17,108127,JP4KRrdASPaZ6Yooo,k6aatfn6D3cGqmLKj,html-button-response
comprehension,5e886683524dca4f1853e20c,600d335a9cf6444a77ab3b49,,12115.359999937937,,,,,21,98630,,,survey-html-form
comprehension,5ec5859b9bbabe5a62150be9,600d336fbeaa41294d22215a,woman sitting,5217.30999997817,B,B,ownGroup,2,13,80812,JP4KRrdASPaZ6Yooo,k6aatfn6D3cGqmLKj,html-button-response
comprehension,5e37fee32d2961000b0eacb7,600d3375ee4abe4f976c4cf7,Human looking on the right side,2140.0750000029802,47,E,otherGroup,6,8,75838,9wpj9KkiFEADFNfx8,seW6HvhD9zC4ToSZy,html-slider-response
comprehension,5f5bd68e85780739e6d82a32,600d334bf495d4400f2dbe9c,"the one with the arms lifted, and the body in diagonal",10896.999999997206,C,C,ownGroup,11,5,88927,aLuopkgfJ8GHWfPNP,7vPD38TZf7F6AQSB3,html-button-response
comprehension,5e886683524dca4f1853e20c,600d335a9cf6444a77ab3b49,,1195.5150000285357,Submit Response,,,,22,99830,,,html-button-response
comprehension,5ef0b80c783eb301cab78d7f,600d334e8f1fb84f0f053f96,man standing with the hands in the front horizontially,2076.4950000011595,67,D,otherGroup,9,18,110204,JP4KRrdASPaZ6Yooo,k6aatfn6D3cGqmLKj,html-slider-response
comprehension,5ec5859b9bbabe5a62150be9,600d336fbeaa41294d22215a,woman sitting,1527.8699999907985,100,B,ownGroup,2,14,82342,JP4KRrdASPaZ6Yooo,k6aatfn6D3cGqmLKj,html-slider-response
comprehension,5e37fee32d2961000b0eacb7,600d3375ee4abe4f976c4cf7,Person sitting against wall,4110.7099999208,H,F,ownGroup,4,9,79952,zEBta7eAuxvtkjmTX,Ju8orRGqRLq3YN2QE,html-button-response
comprehension,5f5bd68e85780739e6d82a32,600d334bf495d4400f2dbe9c,"the one with the arms lifted, and the body in diagonal",5123.00000002142,100,C,ownGroup,11,6,94053,aLuopkgfJ8GHWfPNP,7vPD38TZf7F6AQSB3,html-slider-response
comprehension,5e37fee32d2961000b0eacb7,600d3375ee4abe4f976c4cf7,Person sitting against wall,1734.4349999912083,55,F,ownGroup,4,10,81689,zEBta7eAuxvtkjmTX,Ju8orRGqRLq3YN2QE,html-slider-response
comprehension,5ef0b80c783eb301cab78d7f,600d334e8f1fb84f0f053f96,sits facing forward with nothing on his head,6678.710000000137,F,H,ownGroup,8,19,116885,wjwzCZqktezhoNwdn,eq5bWXrnvhaHAifGC,html-button-response
comprehension,5ef0b80c783eb301cab78d7f,600d334e8f1fb84f0f053f96,sits facing forward with nothing on his head,3224.77500000241,57,H,ownGroup,8,20,120111,wjwzCZqktezhoNwdn,eq5bWXrnvhaHAifGC,html-slider-response
comprehension,5ec5859b9bbabe5a62150be9,600d336fbeaa41294d22215a,a square under two triangles like ears,10481.000000028871,E,E,ownGroup,7,15,92826,dnzYp4v3YyS6WeYcY,QsJYKnnubqYXSDzbE,html-button-response
comprehension,5ec5859b9bbabe5a62150be9,600d336fbeaa41294d22215a,a square under two triangles like ears,3614.2049999907613,100,E,ownGroup,7,16,96443,dnzYp4v3YyS6WeYcY,QsJYKnnubqYXSDzbE,html-slider-response
comprehension,5f5bd68e85780739e6d82a32,600d334bf495d4400f2dbe9c,"sitting, looking up",12231.999999959953,B,B,ownGroup,3,7,106291,vkbunGDg7rfy7MdPD,kcH6fp3ksWD2dcE9S,html-button-response
comprehension,5e37fee32d2961000b0eacb7,600d3375ee4abe4f976c4cf7,"the strangest one, facing right, with a hat",13131.5300000133,E,G,otherGroup,8,11,94823,ytHtL6X7FZLgNXnib,P7HQiz27Z69wYJo3Z,html-button-response
comprehension,5f5bd68e85780739e6d82a32,600d334bf495d4400f2dbe9c,"sitting, looking up",1961.9999999995343,100,B,ownGroup,3,8,108257,vkbunGDg7rfy7MdPD,kcH6fp3ksWD2dcE9S,html-slider-response
comprehension,5e37fee32d2961000b0eacb7,600d3375ee4abe4f976c4cf7,"the strangest one, facing right, with a hat",1723.850000067614,35,G,otherGroup,8,12,96549,ytHtL6X7FZLgNXnib,P7HQiz27Z69wYJo3Z,html-slider-response
comprehension,5ec5859b9bbabe5a62150be9,600d336fbeaa41294d22215a,"the most simple one, with a square as a head and no limbs",8255.755000049248,H,H,ownGroup,13,17,104701,zEBta7eAuxvtkjmTX,t6ctfHQ7DEPmGFEYB,html-button-response
comprehension,5ef0b80c783eb301cab78d7f,600d334e8f1fb84f0f053f96,,13241.14499999996,,,,,21,133353,,,survey-html-form
comprehension,5ec5859b9bbabe5a62150be9,600d336fbeaa41294d22215a,"the most simple one, with a square as a head and no limbs",1983.2649999298155,100,H,ownGroup,13,18,106687,zEBta7eAuxvtkjmTX,t6ctfHQ7DEPmGFEYB,html-slider-response
comprehension,5ef0b80c783eb301cab78d7f,600d334e8f1fb84f0f053f96,,1654.260000002978,Submit Response,,,,22,135009,,,html-button-response
comprehension,5e37fee32d2961000b0eacb7,600d3375ee4abe4f976c4cf7,click the first one from the left,5400.414999923669,G,catch,catch,0,13,101952,catch,catch,html-button-response
comprehension,5f5bd68e85780739e6d82a32,600d334bf495d4400f2dbe9c,click the first one from the left,8771.999999997206,G,catch,catch,0,9,117033,catch,catch,html-button-response
comprehension,5e37fee32d2961000b0eacb7,600d3375ee4abe4f976c4cf7,click the first one from the left,2364.7150000324473,71,catch,catch,0,14,104319,catch,catch,html-slider-response
comprehension,5e37fee32d2961000b0eacb7,600d3375ee4abe4f976c4cf7,The guy standing on one leg with one leg up,3643.4400000143796,A,A,otherGroup,10,15,107965,tpY4W7eRoxEtupkmw,7QnSd2kfFHmh5gcQ7,html-button-response
comprehension,5ec5859b9bbabe5a62150be9,600d336fbeaa41294d22215a,man standing with a tray,6605.5200000992045,D,D,ownGroup,5,19,113296,vkbunGDg7rfy7MdPD,7sCNtPyG5JFnRqCdT,html-button-response
comprehension,5f5bd68e85780739e6d82a32,600d334bf495d4400f2dbe9c,click the first one from the left,4843.9999999827705,100,catch,catch,0,10,121882,catch,catch,html-slider-response
comprehension,5e37fee32d2961000b0eacb7,600d3375ee4abe4f976c4cf7,The guy standing on one leg with one leg up,1505.765000008978,100,A,otherGroup,10,16,109473,tpY4W7eRoxEtupkmw,7QnSd2kfFHmh5gcQ7,html-slider-response
comprehension,5ec5859b9bbabe5a62150be9,600d336fbeaa41294d22215a,man standing with a tray,1334.0500000631437,100,D,ownGroup,5,20,114632,vkbunGDg7rfy7MdPD,7sCNtPyG5JFnRqCdT,html-slider-response
comprehension,5e37fee32d2961000b0eacb7,600d3375ee4abe4f976c4cf7,kneeling man,1842.3450000118464,B,B,otherGroup,2,17,111317,vKJfPn5PH2B49D7Ko,dANjNmhL9y9BW38Gd,html-button-response
comprehension,5e37fee32d2961000b0eacb7,600d3375ee4abe4f976c4cf7,kneeling man,1191.675000009127,100,B,otherGroup,2,18,112511,vKJfPn5PH2B49D7Ko,dANjNmhL9y9BW38Gd,html-slider-response
comprehension,5e37fee32d2961000b0eacb7,600d3375ee4abe4f976c4cf7,"potato, nice connected, other head to right",5264.384999987669,H,H,ownGroup,7,19,117778,WYftRDkmrSjsHDx7x,9AJjndrGjG3sFp7Y3,html-button-response
comprehension,5e37fee32d2961000b0eacb7,600d3375ee4abe4f976c4cf7,"potato, nice connected, other head to right",1304.6599999070168,27,H,ownGroup,7,20,119085,WYftRDkmrSjsHDx7x,9AJjndrGjG3sFp7Y3,html-slider-response
comprehension,5f5bd68e85780739e6d82a32,600d334bf495d4400f2dbe9c,looks like an angel,13766.99999999255,G,G,otherGroup,4,11,135654,hMRQdqJMNnJdkQdaZ,YqXMc6N55tPPG95HT,html-button-response
comprehension,5f5bd68e85780739e6d82a32,600d334bf495d4400f2dbe9c,looks like an angel,2671.0000000311993,100,G,otherGroup,4,12,138328,hMRQdqJMNnJdkQdaZ,YqXMc6N55tPPG95HT,html-slider-response
comprehension,5f5bd68e85780739e6d82a32,600d334bf495d4400f2dbe9c,rabbit,9938.000000023749,E,E,ownGroup,1,13,148270,RXcJQ3BxKX2p7ifiG,gfNqBikGHHPWfNb5y,html-button-response
comprehension,5e37fee32d2961000b0eacb7,600d3375ee4abe4f976c4cf7,,16924.90500002168,,,,,21,136012,,,survey-html-form
comprehension,5e37fee32d2961000b0eacb7,600d3375ee4abe4f976c4cf7,,914.0449999831617,Submit Response,,,,22,136928,,,html-button-response
comprehension,5f5bd68e85780739e6d82a32,600d334bf495d4400f2dbe9c,rabbit,5344.000000040978,99,E,ownGroup,1,14,153621,RXcJQ3BxKX2p7ifiG,gfNqBikGHHPWfNb5y,html-slider-response
comprehension,5ec5859b9bbabe5a62150be9,600d336fbeaa41294d22215a,,38170.199999934994,,,,,21,152805,,,survey-html-form
comprehension,5ec5859b9bbabe5a62150be9,600d336fbeaa41294d22215a,,2683.305000071414,Submit Response,,,,22,155491,,,html-button-response
comprehension,5f5bd68e85780739e6d82a32,600d334bf495d4400f2dbe9c,A person standing straight with both feet with diamond head,38131.999999983236,D,D,ownGroup,10,15,191757,znqg5oiJkLubdmf2a,nYXhDfNHSFDhQonSj,html-button-response
comprehension,5f5bd68e85780739e6d82a32,600d334bf495d4400f2dbe9c,A person standing straight with both feet with diamond head,2347.9999999981374,100,D,ownGroup,10,16,194110,znqg5oiJkLubdmf2a,nYXhDfNHSFDhQonSj,html-slider-response
comprehension,5f5bd68e85780739e6d82a32,600d334bf495d4400f2dbe9c,Person sitting with knee up facing left,10769.000000029337,F,F,otherGroup,7,17,204884,YLWsekeYoH9Nw4RCZ,p5SCRgGJxGsbq8j7b,html-button-response
comprehension,5f5bd68e85780739e6d82a32,600d334bf495d4400f2dbe9c,Person sitting with knee up facing left,3146.999999997206,100,F,otherGroup,7,18,208033,YLWsekeYoH9Nw4RCZ,p5SCRgGJxGsbq8j7b,html-slider-response
comprehension,5f5bd68e85780739e6d82a32,600d334bf495d4400f2dbe9c,Legless and armless man,4988.000000012107,H,H,ownGroup,4,19,213026,cGNuegcWYpFzhERdS,s8yg6tepLJ69GuzxQ,html-button-response
comprehension,5f5bd68e85780739e6d82a32,600d334bf495d4400f2dbe9c,Legless and armless man,3905.999999959022,100,H,ownGroup,4,20,216937,cGNuegcWYpFzhERdS,s8yg6tepLJ69GuzxQ,html-slider-response
comprehension,5f5bd68e85780739e6d82a32,600d334bf495d4400f2dbe9c,,210523.9999999758,,,,,21,427464,,,survey-html-form
comprehension,5f5bd68e85780739e6d82a32,600d334bf495d4400f2dbe9c,,7166.000000026543,Submit Response,,,,22,434640,,,html-button-response
comprehension,5ea358be733b422d604a60e6,600d358829128c4efd9a64b2,,2449.8700000112876,,,,,0,2466,,,html-keyboard-response
comprehension,5d274c8bc2bef0000167d805,600d3583f290344f4fde84b2,,12053,,,,,0,12094,,,html-keyboard-response
comprehension,5d274c8bc2bef0000167d805,600d3583f290344f4fde84b2,,5574.000000000004,I consent to participate.,,,,1,17670,,,html-button-response
comprehension,5ea730e761f86b0f88aba18a,600d359c271cf04f7a10bd9c,,8314,,,,,0,8324,,,html-keyboard-response
comprehension,5ea358be733b422d604a60e6,600d358829128c4efd9a64b2,,30040.365000022575,I consent to participate.,,,,1,32509,,,html-button-response
comprehension,5ea730e761f86b0f88aba18a,600d359c271cf04f7a10bd9c,,3493,I consent to participate.,,,,1,11823,,,html-button-response
comprehension,5fbea10a0a8445052bfe10eb,600d35a807aa664f231c9c19,,4262.805000180379,,,,,0,4276,,,html-keyboard-response
comprehension,5e36be214de4516479b48f31,600d35ad658fd2282ac2f262,,1969.730000004347,,,,,0,1990,,,html-keyboard-response
comprehension,5ea358be733b422d604a60e6,600d358829128c4efd9a64b2,,6667.324999929406,,,,,2,39178,,,html-keyboard-response
comprehension,5fbea10a0a8445052bfe10eb,600d35a807aa664f231c9c19,,3588.3149998262525,I consent to participate.,,,,1,7867,,,html-button-response
comprehension,5d274c8bc2bef0000167d805,600d3583f290344f4fde84b2,,16979.999999999996,,,,,2,34654,,,html-keyboard-response
comprehension,5c8e8032b828c80018fde80c,600d35ae34acba5006a04d3b,,4298.76999999999,,,,,0,4305,,,html-keyboard-response
comprehension,5ea358be733b422d604a60e6,600d358829128c4efd9a64b2,bunny,4812.094999942929,G,E,ownGroup,1,3,43995,cGNuegcWYpFzhERdS,8ALKyt78tFfcichK5,html-button-response
comprehension,5ea730e761f86b0f88aba18a,600d359c271cf04f7a10bd9c,,10985,,,,,2,22810,,,html-keyboard-response
comprehension,5e36be214de4516479b48f31,600d35ad658fd2282ac2f262,,6395.244999999704,I consent to participate.,,,,1,8389,,,html-button-response
comprehension,5d274c8bc2bef0000167d805,600d3583f290344f4fde84b2,click the first one from the left,5969,G,catch,catch,0,3,40639,catch,catch,html-button-response
comprehension,5fbea10a0a8445052bfe10eb,600d35a807aa664f231c9c19,,6816.450000042096,,,,,2,14684,,,html-keyboard-response
comprehension,5fbb4a593dc031c2a81c7944,600d35ac316e264e5664d1db,,6258.7599999969825,,,,,0,6299,,,html-keyboard-response
comprehension,5ea358be733b422d604a60e6,600d358829128c4efd9a64b2,bunny,4865.98000000231,68,E,ownGroup,1,4,48865,cGNuegcWYpFzhERdS,8ALKyt78tFfcichK5,html-slider-response
comprehension,5e36be214de4516479b48f31,600d35ad658fd2282ac2f262,,3418.5550000038347,,,,,2,11809,,,html-keyboard-response
comprehension,5fbb4a593dc031c2a81c7944,600d35ac316e264e5664d1db,,3205.3350000060163,I consent to participate.,,,,1,9521,,,html-button-response
comprehension,5ea730e761f86b0f88aba18a,600d359c271cf04f7a10bd9c,Exercising person looking left or sitting person looking at his knees,6938,F,F,ownGroup,11,3,29752,9wpj9KkiFEADFNfx8,AQ7Rw7b42BTvhgRbJ,html-button-response
comprehension,5d274c8bc2bef0000167d805,600d3583f290344f4fde84b2,click the first one from the left,9486,83,catch,catch,0,4,50165,catch,catch,html-slider-response
comprehension,5fbb4a593dc031c2a81c7944,600d35ac316e264e5664d1db,,5670.644999991055,,,,,2,15198,,,html-keyboard-response
comprehension,5ea730e761f86b0f88aba18a,600d359c271cf04f7a10bd9c,Exercising person looking left or sitting person looking at his knees,5128,88,F,ownGroup,11,4,34888,9wpj9KkiFEADFNfx8,AQ7Rw7b42BTvhgRbJ,html-slider-response
comprehension,5ea358be733b422d604a60e6,600d358829128c4efd9a64b2,"A woman with a dress, kneeling towards right,",8719.745000009425,B,B,otherGroup,9,5,57588,tpY4W7eRoxEtupkmw,Q72XWrb8xmoDeJgP3,html-button-response
comprehension,5fbb4a593dc031c2a81c7944,600d35ac316e264e5664d1db,waving hands,2397.4100000050385,C,C,ownGroup,2,3,17615,NLsYdbJ2XrBW64HqK,3WPKgStmvDmiq4cf8,html-button-response
comprehension,5ea358be733b422d604a60e6,600d358829128c4efd9a64b2,"A woman with a dress, kneeling towards right,",2932.9800000414252,91,B,otherGroup,9,6,60524,tpY4W7eRoxEtupkmw,Q72XWrb8xmoDeJgP3,html-slider-response
comprehension,5ea730e761f86b0f88aba18a,600d359c271cf04f7a10bd9c,standing person with no arms and no legs,4773,H,H,otherGroup,8,5,39664,CbjGXYiEYK62c59ta,rQDvXHhRzEAAGu52K,html-button-response
comprehension,5fbea10a0a8445052bfe10eb,600d35a807aa664f231c9c19,Is kneeking,15653.36999995634,B,B,ownGroup,2,3,30341,znqg5oiJkLubdmf2a,j6hbY87Cv8JQ3pzuB,html-button-response
comprehension,5d274c8bc2bef0000167d805,600d3583f290344f4fde84b2,"deformed, sitting down on their knees",7075.000000000007,B,B,otherGroup,6,5,57247,aLuopkgfJ8GHWfPNP,diJXDCjSTTMwuMQ7A,html-button-response
comprehension,5fbb4a593dc031c2a81c7944,600d35ac316e264e5664d1db,waving hands,5868.419999998878,54,C,ownGroup,2,4,23499,NLsYdbJ2XrBW64HqK,3WPKgStmvDmiq4cf8,html-slider-response
comprehension,5ea730e761f86b0f88aba18a,600d359c271cf04f7a10bd9c,standing person with no arms and no legs,3765,95,H,otherGroup,8,6,43434,CbjGXYiEYK62c59ta,rQDvXHhRzEAAGu52K,html-slider-response
comprehension,5ea358be733b422d604a60e6,600d358829128c4efd9a64b2,Sad man,6052.81499994453,F,F,ownGroup,2,7,66583,cGNuegcWYpFzhERdS,5DC2WsGji9n2GFJbt,html-button-response
comprehension,5d274c8bc2bef0000167d805,600d3583f290344f4fde84b2,"deformed, sitting down on their knees",5587.000000000007,72,B,otherGroup,6,6,62846,aLuopkgfJ8GHWfPNP,diJXDCjSTTMwuMQ7A,html-slider-response
comprehension,5fbea10a0a8445052bfe10eb,600d35a807aa664f231c9c19,Is kneeking,6380.295000039041,89,B,ownGroup,2,4,36724,znqg5oiJkLubdmf2a,j6hbY87Cv8JQ3pzuB,html-slider-response
comprehension,5d0bbf2717aa6b001b114518,600d35c1ec7cd94ec889ef8c,,1588.820000004489,,,,,0,1624,,,html-keyboard-response
comprehension,5fbb4a593dc031c2a81c7944,600d35ac316e264e5664d1db,IT's a man sitting,4558.759999999893,F,F,otherGroup,5,5,28072,gevP48xWek252Nr68,2KrP2MJYyvmTxWwgv,html-button-response
comprehension,5ea358be733b422d604a60e6,600d358829128c4efd9a64b2,Sad man,2392.1700000064448,90,F,ownGroup,2,8,68979,cGNuegcWYpFzhERdS,5DC2WsGji9n2GFJbt,html-slider-response
comprehension,5ea730e761f86b0f88aba18a,600d359c271cf04f7a10bd9c,In straight position holding box on his left.,4045,D,D,otherGroup,9,7,47483,XFepLi46hdo8jijkQ,q5WzoKF6gMk7td6Xy,html-button-response
comprehension,5d0bbf2717aa6b001b114518,600d35c1ec7cd94ec889ef8c,,2145.6250000046566,I consent to participate.,,,,1,3776,,,html-button-response
comprehension,5d274c8bc2bef0000167d805,600d3583f290344f4fde84b2,Priest praying with a book,3201.0000000000146,D,D,otherGroup,5,7,66053,pCBFGvhS95qp75Kj2,mAuxNMzZ9CiZswZRo,html-button-response
comprehension,5e36be214de4516479b48f31,600d35ad658fd2282ac2f262,winged man looking left with hair,22117.510000003676,F,G,ownGroup,6,3,33930,RXcJQ3BxKX2p7ifiG,yWRdsvdGgjJib8TGk,html-button-response
comprehension,5ea730e761f86b0f88aba18a,600d359c271cf04f7a10bd9c,In straight position holding box on his left.,2134,100,D,otherGroup,9,8,49622,XFepLi46hdo8jijkQ,q5WzoKF6gMk7td6Xy,html-slider-response
comprehension,5fbb4a593dc031c2a81c7944,600d35ac316e264e5664d1db,IT's a man sitting,3836.235000009765,89,F,otherGroup,5,6,31918,gevP48xWek252Nr68,2KrP2MJYyvmTxWwgv,html-slider-response
comprehension,5ea730e761f86b0f88aba18a,600d359c271cf04f7a10bd9c,with bunny ears,1714,E,E,otherGroup,3,9,51338,CbjGXYiEYK62c59ta,ZSJyxZ5G9927jrcXR,html-button-response
comprehension,5e36be214de4516479b48f31,600d35ad658fd2282ac2f262,winged man looking left with hair,2873.455000000831,31,G,ownGroup,6,4,36806,RXcJQ3BxKX2p7ifiG,yWRdsvdGgjJib8TGk,html-slider-response
comprehension,5fbea10a0a8445052bfe10eb,600d35a807aa664f231c9c19,click the first one from the left,6449.404999846593,G,catch,catch,0,5,43176,catch,catch,html-button-response
comprehension,5ea730e761f86b0f88aba18a,600d359c271cf04f7a10bd9c,with bunny ears,1912,100,E,otherGroup,3,10,53253,CbjGXYiEYK62c59ta,ZSJyxZ5G9927jrcXR,html-slider-response
comprehension,5ea358be733b422d604a60e6,600d358829128c4efd9a64b2,"facing left, the abstract one",6460.659999982454,F,G,ownGroup,5,9,75444,ytHtL6X7FZLgNXnib,TEYpETCKMpuRJN97o,html-button-response
comprehension,5fbb4a593dc031c2a81c7944,600d35ac316e264e5664d1db,Dancing man with one leg up,3548.9550000056624,A,A,ownGroup,6,7,35478,JP4KRrdASPaZ6Yooo,o7sPurKB299KjuJK5,html-button-response
comprehension,5d274c8bc2bef0000167d805,600d3583f290344f4fde84b2,Priest praying with a book,6250.999999999985,100,D,otherGroup,5,8,72312,pCBFGvhS95qp75Kj2,mAuxNMzZ9CiZswZRo,html-slider-response
comprehension,5fbea10a0a8445052bfe10eb,600d35a807aa664f231c9c19,click the first one from the left,3204.189999960363,100,catch,catch,0,6,46382,catch,catch,html-slider-response
comprehension,5d0bbf2717aa6b001b114518,600d35c1ec7cd94ec889ef8c,,7713.84000001126,,,,,2,11492,,,html-keyboard-response
comprehension,5ea358be733b422d604a60e6,600d358829128c4efd9a64b2,"facing left, the abstract one",2841.069999965839,100,G,ownGroup,5,10,78288,ytHtL6X7FZLgNXnib,TEYpETCKMpuRJN97o,html-slider-response
comprehension,5f076c86c025b537201fcd06,600d35d4668a9341798a3428,,2857.734999997774,,,,,0,2881,,,html-keyboard-response
comprehension,5f076c86c025b537201fcd06,600d35d4668a9341798a3428,,1753.9000000033411,I consent to participate.,,,,1,4640,,,html-button-response
comprehension,5fbea10a0a8445052bfe10eb,600d35a807aa664f231c9c19,a person flying with open arms. Has no feet showing,3555.6600000709295,C,C,otherGroup,10,7,49939,ALPGtS424urRqjoB7,rquDbQbq4JWtwJAF3,html-button-response
comprehension,5fbb4a593dc031c2a81c7944,600d35ac316e264e5664d1db,Dancing man with one leg up,5168.384999997215,74,A,ownGroup,6,8,40657,JP4KRrdASPaZ6Yooo,o7sPurKB299KjuJK5,html-slider-response
comprehension,5e36be214de4516479b48f31,600d35ad658fd2282ac2f262,Is kneeling on the ground,8090.709999996761,D,B,otherGroup,5,5,44899,znqg5oiJkLubdmf2a,nYXhDfNHSFDhQonSj,html-button-response
comprehension,5f076c86c025b537201fcd06,600d35d4668a9341798a3428,,1455.0600000002305,,,,,2,6096,,,html-keyboard-response
comprehension,5efdfd4102ed42293e0c5ad1,600d35ce44c4634c0e62b973,,7223,,,,,0,7231,,,html-keyboard-response
comprehension,5fbea10a0a8445052bfe10eb,600d35a807aa664f231c9c19,a person flying with open arms. Has no feet showing,2642.909999936819,100,C,otherGroup,10,8,52585,ALPGtS424urRqjoB7,rquDbQbq4JWtwJAF3,html-slider-response
comprehension,5e36be214de4516479b48f31,600d35ad658fd2282ac2f262,Is kneeling on the ground,2307.1400000044378,59,B,otherGroup,5,6,47208,znqg5oiJkLubdmf2a,nYXhDfNHSFDhQonSj,html-slider-response
comprehension,5ea358be733b422d604a60e6,600d358829128c4efd9a64b2,monk/praying figure,7407.104999991134,D,D,ownGroup,3,11,85698,tpY4W7eRoxEtupkmw,Yq2j5SNQCXEyXe6ep,html-button-response
comprehension,5f59dd330b08970009cfbd00,600d35d9658fd228a26ba710,,3608.240000088699,,,,,0,3645,,,html-keyboard-response
comprehension,5fc0da1ccfc57d00082b0bbb,600d35d829128c4e88586549,,6631,,,,,0,6641,,,html-keyboard-response
comprehension,5ea730e761f86b0f88aba18a,600d359c271cf04f7a10bd9c,"Person kneeling down, two arms up",11678,B,B,ownGroup,6,11,64933,ALPGtS424urRqjoB7,aK7Jy9gb6q9u683Zu,html-button-response
comprehension,5f076c86c025b537201fcd06,600d35d4668a9341798a3428,I would call it she. Woman in dress on knees,4085.0550000031944,B,B,ownGroup,10,3,10186,tpY4W7eRoxEtupkmw,GxLyHgZdotiHncJai,html-button-response
comprehension,5d262d647d4eaa0015b02814,600d35d6ba3ac54fa4ccd678,,7184.054999961518,,,,,0,7207,,,html-keyboard-response
comprehension,5d0bbf2717aa6b001b114518,600d35c1ec7cd94ec889ef8c,mouse,9741.794999994454,B,B,ownGroup,1,3,21238,RfQj6i5FTEKewPtdP,bEgykACcvR4qXLeyT,html-button-response
comprehension,5ea730e761f86b0f88aba18a,600d359c271cf04f7a10bd9c,"Person kneeling down, two arms up",1967,65,B,ownGroup,6,12,66906,ALPGtS424urRqjoB7,aK7Jy9gb6q9u683Zu,html-slider-response
comprehension,5ea358be733b422d604a60e6,600d358829128c4efd9a64b2,monk/praying figure,2964.6949999732897,68,D,ownGroup,3,12,88665,tpY4W7eRoxEtupkmw,Yq2j5SNQCXEyXe6ep,html-slider-response
comprehension,5e36be214de4516479b48f31,600d35ad658fd2282ac2f262,click the first one from the left,4566.20500000281,G,catch,catch,0,7,51776,catch,catch,html-button-response
comprehension,5fbb4a593dc031c2a81c7944,600d35ac316e264e5664d1db,Two split triangles on top of square.,7639.4650000002,E,E,otherGroup,8,9,48308,zEBta7eAuxvtkjmTX,Ju8orRGqRLq3YN2QE,html-button-response
comprehension,5d274c8bc2bef0000167d805,600d3583f290344f4fde84b2,"deer from behind, left horn is like square",12199,G,G,ownGroup,8,9,84516,CjJsbbMomSi4dHiNp,hPQF45fFkxYyWa9yi,html-button-response
comprehension,5fbea10a0a8445052bfe10eb,600d35a807aa664f231c9c19,turtle,6628.170000156388,H,F,ownGroup,1,9,59216,dnzYp4v3YyS6WeYcY,TkjPiTcFnF8tateYW,html-button-response
comprehension,5ea730e761f86b0f88aba18a,600d359c271cf04f7a10bd9c,click the first one from the left,2281,G,catch,catch,0,13,69191,catch,catch,html-button-response
comprehension,5f076c86c025b537201fcd06,600d35d4668a9341798a3428,I would call it she. Woman in dress on knees,4320.9499999939,94,B,ownGroup,10,4,14512,tpY4W7eRoxEtupkmw,GxLyHgZdotiHncJai,html-slider-response
comprehension,5e36be214de4516479b48f31,600d35ad658fd2282ac2f262,click the first one from the left,2016.4099999965401,100,catch,catch,0,8,53795,catch,catch,html-slider-response
comprehension,5d0bbf2717aa6b001b114518,600d35c1ec7cd94ec889ef8c,mouse,3970.85500000685,62,B,ownGroup,1,4,25214,RfQj6i5FTEKewPtdP,bEgykACcvR4qXLeyT,html-slider-response
comprehension,5ea358be733b422d604a60e6,600d358829128c4efd9a64b2,someone kicking on one foot,3294.095000019297,A,A,otherGroup,5,13,91962,vkbunGDg7rfy7MdPD,7sCNtPyG5JFnRqCdT,html-button-response
comprehension,5d274c8bc2bef0000167d805,600d3583f290344f4fde84b2,"deer from behind, left horn is like square",2905,18,G,ownGroup,8,10,87431,CjJsbbMomSi4dHiNp,hPQF45fFkxYyWa9yi,html-slider-response
comprehension,5fbb4a593dc031c2a81c7944,600d35ac316e264e5664d1db,Two split triangles on top of square.,3303.5199999867473,89,E,otherGroup,8,10,51621,zEBta7eAuxvtkjmTX,Ju8orRGqRLq3YN2QE,html-slider-response
comprehension,5e36be214de4516479b48f31,600d35ad658fd2282ac2f262,sitting down bunny ears,2231.659999997646,E,E,ownGroup,4,9,56029,CbjGXYiEYK62c59ta,Qu3W23ScTXpnfWBH6,html-button-response
comprehension,5fbea10a0a8445052bfe10eb,600d35a807aa664f231c9c19,turtle,2630.2900000009686,23,F,ownGroup,1,10,61848,dnzYp4v3YyS6WeYcY,TkjPiTcFnF8tateYW,html-slider-response
comprehension,5f076c86c025b537201fcd06,600d35d4668a9341798a3428,cusco,2538.524999996298,H,E,otherGroup,1,5,17054,d9p3wuzB2BQYCy7zP,uefqbKWbBYsSeJE88,html-button-response
comprehension,5feb6d490d786d743fec0d09,600d35c751988f4f478305b1,,2554.8600000329316,,,,,0,2597,,,html-keyboard-response
comprehension,5d262d647d4eaa0015b02814,600d35d6ba3ac54fa4ccd678,,6427.434999961406,I consent to participate.,,,,1,13641,,,html-button-response
comprehension,5ea730e761f86b0f88aba18a,600d359c271cf04f7a10bd9c,click the first one from the left,3592,100,catch,catch,0,14,72791,catch,catch,html-slider-response
comprehension,5ea358be733b422d604a60e6,600d358829128c4efd9a64b2,someone kicking on one foot,2689.049999928102,29,A,otherGroup,5,14,94653,vkbunGDg7rfy7MdPD,7sCNtPyG5JFnRqCdT,html-slider-response
comprehension,5e36be214de4516479b48f31,600d35ad658fd2282ac2f262,sitting down bunny ears,1946.1349999983213,100,E,ownGroup,4,10,57977,CbjGXYiEYK62c59ta,Qu3W23ScTXpnfWBH6,html-slider-response
comprehension,5fbb4a593dc031c2a81c7944,600d35ac316e264e5664d1db,dancer,2987.6599999988684,G,G,ownGroup,1,11,54620,hXJrmsG9Q2uWDXN7T,ek7RGAsMfmiuKv9ZW,html-button-response
comprehension,5f076c86c025b537201fcd06,600d35d4668a9341798a3428,cusco,2887.350000004517,23,E,otherGroup,1,6,19944,d9p3wuzB2BQYCy7zP,uefqbKWbBYsSeJE88,html-slider-response
comprehension,5e36be214de4516479b48f31,600d35ad658fd2282ac2f262,monk/praying figure standing upright,2774.380000002566,D,D,otherGroup,5,11,60754,tpY4W7eRoxEtupkmw,Yq2j5SNQCXEyXe6ep,html-button-response
comprehension,5fbb4a593dc031c2a81c7944,600d35ac316e264e5664d1db,dancer,2554.680000001099,76,G,ownGroup,1,12,57183,hXJrmsG9Q2uWDXN7T,ek7RGAsMfmiuKv9ZW,html-slider-response
comprehension,5ea358be733b422d604a60e6,600d358829128c4efd9a64b2,like a little sausage with square head,3575.0349999871105,H,H,ownGroup,7,15,98232,dnzYp4v3YyS6WeYcY,QsJYKnnubqYXSDzbE,html-button-response
comprehension,5ba8ba00d9c1080001fa4193,600d35cf44c4634c0e62b974,,18719.59999995306,,,,,0,18755,,,html-keyboard-response
comprehension,5d262d647d4eaa0015b02814,600d35d6ba3ac54fa4ccd678,,5297.674999921583,,,,,2,18941,,,html-keyboard-response
comprehension,5fbea10a0a8445052bfe10eb,600d35a807aa664f231c9c19,the one that looks like standing up praying( or giving something),6177.240000106394,D,D,ownGroup,12,11,68027,fbBEYS2xBiuER4yog,yanmYyJbogZxpMhs5,html-button-response
comprehension,5e36be214de4516479b48f31,600d35ad658fd2282ac2f262,monk/praying figure standing upright,2718.5150000004796,100,D,otherGroup,5,12,63474,tpY4W7eRoxEtupkmw,Yq2j5SNQCXEyXe6ep,html-slider-response
comprehension,5ea358be733b422d604a60e6,600d358829128c4efd9a64b2,like a little sausage with square head,2595.310000004247,86,H,ownGroup,7,16,100829,dnzYp4v3YyS6WeYcY,QsJYKnnubqYXSDzbE,html-slider-response
comprehension,5fbb4a593dc031c2a81c7944,600d35ac316e264e5664d1db,a pointing man,2958.8850000000093,D,D,otherGroup,3,13,60153,vKJfPn5PH2B49D7Ko,dANjNmhL9y9BW38Gd,html-button-response
comprehension,5ab8ce6da3ba7a0001b41664,600d35e56737d85026d2c111,,2880.0950000004377,,,,,0,2900,,,html-keyboard-response
comprehension,5f076c86c025b537201fcd06,600d35d4668a9341798a3428,looks like a woman dancing or a seal playing with a ball,5816.534999998112,E,G,otherGroup,12,7,25765,wjwzCZqktezhoNwdn,SPX8pNAPj7f8RxfDg,html-button-response
comprehension,5d262d647d4eaa0015b02814,600d35d6ba3ac54fa4ccd678,click the first one from the left,3475.6550000747666,G,catch,catch,0,3,22426,catch,catch,html-button-response
comprehension,5fbea10a0a8445052bfe10eb,600d35a807aa664f231c9c19,the one that looks like standing up praying( or giving something),2957.854999927804,65,D,ownGroup,12,12,70987,fbBEYS2xBiuER4yog,yanmYyJbogZxpMhs5,html-slider-response
comprehension,5fbb4a593dc031c2a81c7944,600d35ac316e264e5664d1db,a pointing man,1844.840000005206,61,D,otherGroup,3,14,62006,vKJfPn5PH2B49D7Ko,dANjNmhL9y9BW38Gd,html-slider-response
comprehension,5e36be214de4516479b48f31,600d35ad658fd2282ac2f262,Falling backwards with both hands up.,3089.045000000624,C,C,ownGroup,7,13,66566,aLuopkgfJ8GHWfPNP,Q6SRkZJRdjCHvmN38,html-button-response
comprehension,5ea358be733b422d604a60e6,600d358829128c4efd9a64b2,click the first one from the left,2902.5099999271333,G,catch,catch,0,17,103734,catch,catch,html-button-response
comprehension,5f076c86c025b537201fcd06,600d35d4668a9341798a3428,looks like a woman dancing or a seal playing with a ball,1590.6399999948917,78,G,otherGroup,12,8,27360,wjwzCZqktezhoNwdn,SPX8pNAPj7f8RxfDg,html-slider-response
comprehension,5ea730e761f86b0f88aba18a,600d359c271cf04f7a10bd9c,Looks like a ghost with both hands up.,9394,C,C,ownGroup,9,15,82187,XFepLi46hdo8jijkQ,q5WzoKF6gMk7td6Xy,html-button-response
comprehension,5f59dd330b08970009cfbd00,600d35d9658fd228a26ba710,,19081.550000002608,I consent to participate.,,,,1,22732,,,html-button-response
comprehension,5d274c8bc2bef0000167d805,600d3583f290344f4fde84b2,90 degree triangle or a rabbit with two ears like triangles,12823.000000000015,E,E,ownGroup,11,11,100266,HkiKxqzW8QB5kJNEB,pXny4jckQajNRAXwg,html-button-response
comprehension,5e36be214de4516479b48f31,600d35ad658fd2282ac2f262,Falling backwards with both hands up.,1748.8500000035856,100,C,ownGroup,7,14,68316,aLuopkgfJ8GHWfPNP,Q6SRkZJRdjCHvmN38,html-slider-response
comprehension,5ea730e761f86b0f88aba18a,600d359c271cf04f7a10bd9c,Looks like a ghost with both hands up.,1967,88,C,ownGroup,9,16,84158,XFepLi46hdo8jijkQ,q5WzoKF6gMk7td6Xy,html-slider-response
comprehension,5c55ef37b957de0001401e82,600d35eca7a2224f97a7d04b,,1147.8099999949336,,,,,0,1176,,,html-keyboard-response
comprehension,5fbb4a593dc031c2a81c7944,600d35ac316e264e5664d1db,no legs,3130.489999995916,H,H,otherGroup,2,15,65148,hXJrmsG9Q2uWDXN7T,9sgexPGxSg8dbfjky,html-button-response
comprehension,5ea358be733b422d604a60e6,600d358829128c4efd9a64b2,click the first one from the left,2618.7449999852106,100,catch,catch,0,18,106355,catch,catch,html-slider-response
comprehension,5f076c86c025b537201fcd06,600d35d4668a9341798a3428,"Laying on ground, relaxing with arms extended",2624.824999998964,C,C,otherGroup,7,9,29987,Ko3v7THD2dqefyTAx,AfLPQRQ2yMkSegvuD,html-button-response
comprehension,5d262d647d4eaa0015b02814,600d35d6ba3ac54fa4ccd678,click the first one from the left,4703.884999966249,100,catch,catch,0,4,27134,catch,catch,html-slider-response
comprehension,5fbb4a593dc031c2a81c7944,600d35ac316e264e5664d1db,no legs,1505.300000004354,56,H,otherGroup,2,16,66659,hXJrmsG9Q2uWDXN7T,9sgexPGxSg8dbfjky,html-slider-response
comprehension,5d274c8bc2bef0000167d805,600d3583f290344f4fde84b2,90 degree triangle or a rabbit with two ears like triangles,2717.9999999999854,100,E,ownGroup,11,12,102988,HkiKxqzW8QB5kJNEB,pXny4jckQajNRAXwg,html-slider-response
comprehension,5f076c86c025b537201fcd06,600d35d4668a9341798a3428,"Laying on ground, relaxing with arms extended",1914.2100000026403,100,C,otherGroup,7,10,31904,Ko3v7THD2dqefyTAx,AfLPQRQ2yMkSegvuD,html-slider-response
comprehension,5e36be214de4516479b48f31,600d35ad658fd2282ac2f262,one leg up guy,3042.0050000029732,A,A,otherGroup,4,15,71361,NLsYdbJ2XrBW64HqK,9hRopcMnnYmR9e2dW,html-button-response
comprehension,5c55ef37b957de0001401e82,600d35eca7a2224f97a7d04b,,2575.524999992922,I consent to participate.,,,,1,3760,,,html-button-response
comprehension,5fbea10a0a8445052bfe10eb,600d35a807aa664f231c9c19,"Looks like a penguin with a backpack, with one leg up.",6466.269999975339,A,A,ownGroup,12,13,77455,ALPGtS424urRqjoB7,3yzwrP6zwjQAfBhgu,html-button-response
comprehension,5f076c86c025b537201fcd06,600d35d4668a9341798a3428,click the first one from the left,1818.2600000000093,G,catch,catch,0,11,33725,catch,catch,html-button-response
comprehension,5c55ef37b957de0001401e82,600d35eca7a2224f97a7d04b,,1822.8799999924377,,,,,2,5586,,,html-keyboard-response
comprehension,5e36be214de4516479b48f31,600d35ad658fd2282ac2f262,one leg up guy,1875.9449999997742,100,A,otherGroup,4,16,73238,NLsYdbJ2XrBW64HqK,9hRopcMnnYmR9e2dW,html-slider-response
comprehension,5fbb4a593dc031c2a81c7944,600d35ac316e264e5664d1db,click the first one from the left,3241.6099999973085,G,catch,catch,0,17,69908,catch,catch,html-button-response
comprehension,5fbea10a0a8445052bfe10eb,600d35a807aa664f231c9c19,"Looks like a penguin with a backpack, with one leg up.",2237.015000078827,99,A,ownGroup,12,14,79694,ALPGtS424urRqjoB7,3yzwrP6zwjQAfBhgu,html-slider-response
comprehension,5d0bbf2717aa6b001b114518,600d35c1ec7cd94ec889ef8c,"Rabbit in a mountain or a girl with a ribbon on her head. A square with two triangles on top, and the square in on top of a mountain.",19394.59500000521,E,E,ownGroup,30,5,44613,dnzYp4v3YyS6WeYcY,uygYhykTj3MM8xQbk,html-button-response
comprehension,5ea358be733b422d604a60e6,600d358829128c4efd9a64b2,person flying,5718.2449999963865,C,C,ownGroup,2,19,112077,ALPGtS424urRqjoB7,rquDbQbq4JWtwJAF3,html-button-response
comprehension,5f59dd330b08970009cfbd00,600d35d9658fd228a26ba710,,7726.95499996189,,,,,2,30462,,,html-keyboard-response
comprehension,5f076c86c025b537201fcd06,600d35d4668a9341798a3428,click the first one from the left,2481.1350000018138,100,catch,catch,0,12,36208,catch,catch,html-slider-response
comprehension,5fbb4a593dc031c2a81c7944,600d35ac316e264e5664d1db,click the first one from the left,2083.4849999955622,95,catch,catch,0,18,71998,catch,catch,html-slider-response
comprehension,5d274c8bc2bef0000167d805,600d3583f290344f4fde84b2,"looks like a person flying with their arms out either side of them, no visible legs and the image is slanted sideways.",6757.999999999985,C,C,ownGroup,23,13,109751,fbBEYS2xBiuER4yog,9uGM2BcYH4hk2uSzX,html-button-response
comprehension,5ea358be733b422d604a60e6,600d358829128c4efd9a64b2,person flying,2420.589999994263,90,C,ownGroup,2,20,114501,ALPGtS424urRqjoB7,rquDbQbq4JWtwJAF3,html-slider-response
comprehension,5f076c86c025b537201fcd06,600d35d4668a9341798a3428,Sitting man,2023.1100000019069,F,F,otherGroup,2,13,38234,gevP48xWek252Nr68,v8BQYnahpsx6vNSgg,html-button-response
comprehension,5ba8ba00d9c1080001fa4193,600d35cf44c4634c0e62b974,,16116.730000008829,I consent to participate.,,,,1,34881,,,html-button-response
comprehension,5d0bbf2717aa6b001b114518,600d35c1ec7cd94ec889ef8c,"Rabbit in a mountain or a girl with a ribbon on her head. A square with two triangles on top, and the square in on top of a mountain.",3405.139999988023,100,E,ownGroup,30,6,48020,dnzYp4v3YyS6WeYcY,uygYhykTj3MM8xQbk,html-slider-response
comprehension,5fbea10a0a8445052bfe10eb,600d35a807aa664f231c9c19,dancer,3636.675000190735,G,G,otherGroup,1,15,83333,hXJrmsG9Q2uWDXN7T,ek7RGAsMfmiuKv9ZW,html-button-response
comprehension,5e488868adfd1a325207d76b,600d35fd01a0844105c1d422,,1173.8800000021001,,,,,0,1199,,,html-keyboard-response
comprehension,5e36be214de4516479b48f31,600d35ad658fd2282ac2f262,"Looks like a man sitting against a wall looking down, no triangle ears",5801.519999993616,F,F,otherGroup,13,17,79043,jK9WHXtaAGcGZpsZQ,s4iDhxc6wyabMRhgh,html-button-response
comprehension,5c55ef37b957de0001401e82,600d35eca7a2224f97a7d04b,the person that is facing us,5882.035000002361,H,H,otherGroup,6,3,11477,ytHtL6X7FZLgNXnib,nmgtMEMoRd5vazhJk,html-button-response
comprehension,5f076c86c025b537201fcd06,600d35d4668a9341798a3428,Sitting man,1687.4099999986356,100,F,otherGroup,2,14,39925,gevP48xWek252Nr68,v8BQYnahpsx6vNSgg,html-slider-response
comprehension,5fbb4a593dc031c2a81c7944,600d35ac316e264e5664d1db,"kneeling, open arms",3511.5899999946123,C,B,otherGroup,3,19,75519,znqg5oiJkLubdmf2a,5Q6MByedLGJZsKkSg,html-button-response
comprehension,5fbea10a0a8445052bfe10eb,600d35a807aa664f231c9c19,dancer,1680.0649999640882,100,G,otherGroup,1,16,85015,hXJrmsG9Q2uWDXN7T,ek7RGAsMfmiuKv9ZW,html-slider-response
comprehension,5e488868adfd1a325207d76b,600d35fd01a0844105c1d422,,2226.620000001276,I consent to participate.,,,,1,3428,,,html-button-response
comprehension,5ea730e761f86b0f88aba18a,600d359c271cf04f7a10bd9c,"big leg, weird, angel",11805,G,G,otherGroup,4,17,95968,LiXLPe9s6Cnxdjtxv,ptXfp9RXwbpoqCATr,html-button-response
comprehension,5d262d647d4eaa0015b02814,600d35d6ba3ac54fa4ccd678,"a man sitting, facing left, the abstract one",10619.6850000415,F,G,otherGroup,8,5,37758,ytHtL6X7FZLgNXnib,TEYpETCKMpuRJN97o,html-button-response
comprehension,5e36be214de4516479b48f31,600d35ad658fd2282ac2f262,"Looks like a man sitting against a wall looking down, no triangle ears",1753.8100000019767,100,F,otherGroup,13,18,80799,jK9WHXtaAGcGZpsZQ,s4iDhxc6wyabMRhgh,html-slider-response
comprehension,5fbb4a593dc031c2a81c7944,600d35ac316e264e5664d1db,"kneeling, open arms",2023.1199999980163,83,B,otherGroup,3,20,77548,znqg5oiJkLubdmf2a,5Q6MByedLGJZsKkSg,html-slider-response
comprehension,5d0bbf2717aa6b001b114518,600d35c1ec7cd94ec889ef8c,Human looking us.,4509.364999990794,F,H,ownGroup,4,7,52533,9wpj9KkiFEADFNfx8,seW6HvhD9zC4ToSZy,html-button-response
comprehension,5d274c8bc2bef0000167d805,600d3583f290344f4fde84b2,"looks like a person flying with their arms out either side of them, no visible legs and the image is slanted sideways.",4961.005000000005,59,C,ownGroup,23,14,114716,fbBEYS2xBiuER4yog,9uGM2BcYH4hk2uSzX,html-slider-response
comprehension,5c55ef37b957de0001401e82,600d35eca7a2224f97a7d04b,the person that is facing us,3395.0800000020536,77,H,otherGroup,6,4,14881,ytHtL6X7FZLgNXnib,nmgtMEMoRd5vazhJk,html-slider-response
comprehension,5efdfd4102ed42293e0c5ad1,600d35ce44c4634c0e62b973,,36473,I consent to participate.,,,,1,43715,,,html-button-response
comprehension,5ea730e761f86b0f88aba18a,600d359c271cf04f7a10bd9c,"big leg, weird, angel",2397,18,G,otherGroup,4,18,98369,LiXLPe9s6Cnxdjtxv,ptXfp9RXwbpoqCATr,html-slider-response
comprehension,5f41211aecc86b08e8912a4d,600d35e81a210b4b41f23a4b,,3923,,,,,0,3924,,,html-keyboard-response
comprehension,5ab8ce6da3ba7a0001b41664,600d35e56737d85026d2c111,,18693.794999999227,I consent to participate.,,,,1,21605,,,html-button-response
comprehension,5f076c86c025b537201fcd06,600d35d4668a9341798a3428,Potato with a square on top/ perfectly connected,4212.48999999807,H,H,otherGroup,8,15,44141,WYftRDkmrSjsHDx7x,pGLkeyufdyWGnJrKW,html-button-response
comprehension,5d0bbf2717aa6b001b114518,600d35c1ec7cd94ec889ef8c,Human looking us.,1820.980000004056,63,H,ownGroup,4,8,54357,9wpj9KkiFEADFNfx8,seW6HvhD9zC4ToSZy,html-slider-response
comprehension,5ba8ba00d9c1080001fa4193,600d35cf44c4634c0e62b974,,6400.5250000045635,,,,,2,41283,,,html-keyboard-response
comprehension,5d274c8bc2bef0000167d805,600d3583f290344f4fde84b2,he has one leg up,2008.0050000000047,A,A,otherGroup,5,15,116728,tpY4W7eRoxEtupkmw,GxLyHgZdotiHncJai,html-button-response
comprehension,5d262d647d4eaa0015b02814,600d35d6ba3ac54fa4ccd678,"a man sitting, facing left, the abstract one",3858.985000057146,86,G,otherGroup,8,6,41620,ytHtL6X7FZLgNXnib,TEYpETCKMpuRJN97o,html-slider-response
comprehension,5e488868adfd1a325207d76b,600d35fd01a0844105c1d422,,4212.895000000572,,,,,2,7643,,,html-keyboard-response
comprehension,5f076c86c025b537201fcd06,600d35d4668a9341798a3428,Potato with a square on top/ perfectly connected,1965.2950000017881,42,H,otherGroup,8,16,46109,WYftRDkmrSjsHDx7x,pGLkeyufdyWGnJrKW,html-slider-response
comprehension,5fbea10a0a8445052bfe10eb,600d35a807aa664f231c9c19,Looks like a chilli pepper or man from a frontal view.,6369.695000117645,H,H,otherGroup,12,17,91386,CjJsbbMomSi4dHiNp,vJ5WeTgtC8GwGr35b,html-button-response
comprehension,5d274c8bc2bef0000167d805,600d3583f290344f4fde84b2,he has one leg up,2084,94,A,otherGroup,5,16,118817,tpY4W7eRoxEtupkmw,GxLyHgZdotiHncJai,html-slider-response
comprehension,5ab8ce6da3ba7a0001b41664,600d35e56737d85026d2c111,,3464.2299999977695,,,,,2,25071,,,html-keyboard-response
comprehension,5feb6d490d786d743fec0d09,600d35c751988f4f478305b1,,30710.269999923185,I consent to participate.,,,,1,33313,,,html-button-response
comprehension,5ea730e761f86b0f88aba18a,600d359c271cf04f7a10bd9c,Person is standing on one leg and the second is up and the arms ar up,4288,A,A,ownGroup,16,19,102659,Ko3v7THD2dqefyTAx,2iWCDAdpFvRCNSrEM,html-button-response
comprehension,5fbea10a0a8445052bfe10eb,600d35a807aa664f231c9c19,Looks like a chilli pepper or man from a frontal view.,2101.719999918714,100,H,otherGroup,12,18,93490,CjJsbbMomSi4dHiNp,vJ5WeTgtC8GwGr35b,html-slider-response
comprehension,5d0bbf2717aa6b001b114518,600d35c1ec7cd94ec889ef8c,dance,3948.2350000034785,G,G,otherGroup,1,9,58308,wjwzCZqktezhoNwdn,eq5bWXrnvhaHAifGC,html-button-response
comprehension,5f076c86c025b537201fcd06,600d35d4668a9341798a3428,"Looks like a penguin with a backpack, with one leg up.",3275.5400000023656,A,A,otherGroup,12,17,49388,ALPGtS424urRqjoB7,3yzwrP6zwjQAfBhgu,html-button-response
comprehension,5e488868adfd1a325207d76b,600d35fd01a0844105c1d422,It looks like a priest with a tray in his hands,4773.069999999279,D,D,otherGroup,11,3,12420,pCBFGvhS95qp75Kj2,yyJmyrtMsKAeJFXQT,html-button-response
comprehension,5d274c8bc2bef0000167d805,600d3583f290344f4fde84b2,Human looking us,3631.9999999999854,H,H,otherGroup,3,17,122452,9wpj9KkiFEADFNfx8,seW6HvhD9zC4ToSZy,html-button-response
comprehension,5e8b0bda9b3f3d023001ef7f,600d35f836051a4fe717143b,,8404.840000031982,,,,,0,9301,,,html-keyboard-response
comprehension,5c55ef37b957de0001401e82,600d35eca7a2224f97a7d04b,"the one like a depressed rabbit, two triangles to the top, head square",7604.084999999031,E,E,otherGroup,13,5,22501,dnzYp4v3YyS6WeYcY,QsJYKnnubqYXSDzbE,html-button-response
comprehension,5e36be214de4516479b48f31,600d35ad658fd2282ac2f262,The most simple one. Looks like a chilli. Or like somone sitting seen from front,9519.175000001269,H,H,otherGroup,15,19,90320,CjJsbbMomSi4dHiNp,XFHb4aQTy24MTYXyv,html-button-response
comprehension,5ea730e761f86b0f88aba18a,600d359c271cf04f7a10bd9c,Person is standing on one leg and the second is up and the arms ar up,3305,31,A,ownGroup,16,20,105968,Ko3v7THD2dqefyTAx,2iWCDAdpFvRCNSrEM,html-slider-response
comprehension,5f076c86c025b537201fcd06,600d35d4668a9341798a3428,"Looks like a penguin with a backpack, with one leg up.",1984.5799999966403,97,A,otherGroup,12,18,51377,ALPGtS424urRqjoB7,3yzwrP6zwjQAfBhgu,html-slider-response
comprehension,5fbea10a0a8445052bfe10eb,600d35a807aa664f231c9c19,This one looks like it has bunny ears on top of a square head.,3051.5250000171363,E,E,otherGroup,15,19,96543,jK9WHXtaAGcGZpsZQ,6Lw73R2unZvNB2vZE,html-button-response
comprehension,5d0bbf2717aa6b001b114518,600d35c1ec7cd94ec889ef8c,dance,3117.2999999980675,49,G,otherGroup,1,10,61428,wjwzCZqktezhoNwdn,eq5bWXrnvhaHAifGC,html-slider-response
comprehension,5e488868adfd1a325207d76b,600d35fd01a0844105c1d422,It looks like a priest with a tray in his hands,2123.9600000008068,100,D,otherGroup,11,4,14547,pCBFGvhS95qp75Kj2,yyJmyrtMsKAeJFXQT,html-slider-response
comprehension,5d274c8bc2bef0000167d805,600d3583f290344f4fde84b2,Human looking us,1951,100,H,otherGroup,3,18,124408,9wpj9KkiFEADFNfx8,seW6HvhD9zC4ToSZy,html-slider-response
comprehension,5ba8ba00d9c1080001fa4193,600d35cf44c4634c0e62b974,"person kneeling, as if praying",8399.869999964722,H,H,ownGroup,5,3,49686,YLWsekeYoH9Nw4RCZ,XEcR3EEetjnWpMrbP,html-button-response
comprehension,5efdfd4102ed42293e0c5ad1,600d35ce44c4634c0e62b973,,9612,,,,,2,53330,,,html-keyboard-response
comprehension,5fbea10a0a8445052bfe10eb,600d35a807aa664f231c9c19,This one looks like it has bunny ears on top of a square head.,1707.2250000201166,100,E,otherGroup,15,20,98252,jK9WHXtaAGcGZpsZQ,6Lw73R2unZvNB2vZE,html-slider-response
comprehension,5e36be214de4516479b48f31,600d35ad658fd2282ac2f262,The most simple one. Looks like a chilli. Or like somone sitting seen from front,2781.7900000009104,100,H,otherGroup,15,20,93104,CjJsbbMomSi4dHiNp,XFHb4aQTy24MTYXyv,html-slider-response
comprehension,5c55ef37b957de0001401e82,600d35eca7a2224f97a7d04b,"the one like a depressed rabbit, two triangles to the top, head square",3667.9800000129035,100,E,otherGroup,13,6,26179,dnzYp4v3YyS6WeYcY,QsJYKnnubqYXSDzbE,html-slider-response
comprehension,5ea358be733b422d604a60e6,600d358829128c4efd9a64b2,,16776.209999923594,,,,,21,131281,,,survey-html-form
comprehension,5fbb4a593dc031c2a81c7944,600d35ac316e264e5664d1db,,13417.865000010352,,,,,21,90976,,,survey-html-form
comprehension,5ab8ce6da3ba7a0001b41664,600d35e56737d85026d2c111,person looking left with knees bent sitting down,8033.250000007683,F,F,ownGroup,8,3,33115,RXcJQ3BxKX2p7ifiG,X8ZXNCLZ8HHxBrnGt,html-button-response
comprehension,5e488868adfd1a325207d76b,600d35fd01a0844105c1d422,Looks like a guy kneeling down with his hands close together,3639.1599999988102,B,B,otherGroup,11,5,18188,pCBFGvhS95qp75Kj2,yyJmyrtMsKAeJFXQT,html-button-response
comprehension,5d0bbf2717aa6b001b114518,600d35c1ec7cd94ec889ef8c,IT's a man sitting,4101.47500000312,F,F,otherGroup,5,11,65532,gevP48xWek252Nr68,2KrP2MJYyvmTxWwgv,html-button-response
comprehension,5ea358be733b422d604a60e6,600d358829128c4efd9a64b2,,1304.5150000834838,Submit Response,,,,22,132588,,,html-button-response
comprehension,5d262d647d4eaa0015b02814,600d35d6ba3ac54fa4ccd678,"looks like a person kneeling down praying, the diamond shaped head is off centre and the triangle shaped feet are behind them.",11282.6800000621,B,B,ownGroup,23,7,52906,fbBEYS2xBiuER4yog,9uGM2BcYH4hk2uSzX,html-button-response
comprehension,5fbb4a593dc031c2a81c7944,600d35ac316e264e5664d1db,,1240.059999996447,Submit Response,,,,22,92225,,,html-button-response
comprehension,5feb6d490d786d743fec0d09,600d35c751988f4f478305b1,,9358.110000030138,,,,,2,42674,,,html-keyboard-response
comprehension,5e488868adfd1a325207d76b,600d35fd01a0844105c1d422,Looks like a guy kneeling down with his hands close together,1692.7900000009686,100,B,otherGroup,11,6,19883,pCBFGvhS95qp75Kj2,yyJmyrtMsKAeJFXQT,html-slider-response
comprehension,5d0bbf2717aa6b001b114518,600d35c1ec7cd94ec889ef8c,IT's a man sitting,1981.5900000103284,60,F,otherGroup,5,12,67516,gevP48xWek252Nr68,2KrP2MJYyvmTxWwgv,html-slider-response
comprehension,5eb7084a6b705a61bb8a8ce1,600d35e47553af4f8a66e79a,,2849.415000062436,,,,,0,2955,,,html-keyboard-response
comprehension,5f41211aecc86b08e8912a4d,600d35e81a210b4b41f23a4b,,14808,I consent to participate.,,,,1,18735,,,html-button-response
comprehension,5d262d647d4eaa0015b02814,600d35d6ba3ac54fa4ccd678,"looks like a person kneeling down praying, the diamond shaped head is off centre and the triangle shaped feet are behind them.",2216.6950000682846,100,B,ownGroup,23,8,55126,fbBEYS2xBiuER4yog,9uGM2BcYH4hk2uSzX,html-slider-response
comprehension,5ba8ba00d9c1080001fa4193,600d35cf44c4634c0e62b974,"person kneeling, as if praying",5743.409999995492,77,H,ownGroup,5,4,55432,YLWsekeYoH9Nw4RCZ,XEcR3EEetjnWpMrbP,html-slider-response
comprehension,5e488868adfd1a325207d76b,600d35fd01a0844105c1d422,click the first one from the left,2542.3850000006496,G,catch,catch,0,7,22428,catch,catch,html-button-response
comprehension,5bafec568f3bd70001e4e5f8,600d35e3f2232e501c322bc6,,46125,,,,,0,46130,,,html-keyboard-response
comprehension,5f41211aecc86b08e8912a4d,600d35e81a210b4b41f23a4b,,2488,,,,,2,21225,,,html-keyboard-response
comprehension,5bafec568f3bd70001e4e5f8,600d35e3f2232e501c322bc6,,1356,I consent to participate.,,,,1,47488,,,html-button-response
comprehension,5e488868adfd1a325207d76b,600d35fd01a0844105c1d422,click the first one from the left,1798.900000001595,100,catch,catch,0,8,24228,catch,catch,html-slider-response
comprehension,5feb6d490d786d743fec0d09,600d35c751988f4f478305b1,bunny,5031.480000005104,E,E,ownGroup,1,3,47713,cGNuegcWYpFzhERdS,8ALKyt78tFfcichK5,html-button-response
comprehension,5e91ac8949a5ba4de261368c,600d360e28de48289cec979a,,3719.5300000021234,,,,,0,3778,,,html-keyboard-response
comprehension,5d0bbf2717aa6b001b114518,600d35c1ec7cd94ec889ef8c,"one leg up, one arm up",5238.389999998617,A,A,ownGroup,6,13,72756,Ko3v7THD2dqefyTAx,n3Q4td6qCse5aSv9e,html-button-response
comprehension,5f59dd330b08970009cfbd00,600d35d9658fd228a26ba710,"potato, nice connected, other head to right",27495.905000017956,H,H,ownGroup,7,3,57975,WYftRDkmrSjsHDx7x,9AJjndrGjG3sFp7Y3,html-button-response
comprehension,5fc0da1ccfc57d00082b0bbb,600d35d829128c4e88586549,,54235,I consent to participate.,,,,1,60887,,,html-button-response
comprehension,5d0bbf2717aa6b001b114518,600d35c1ec7cd94ec889ef8c,"one leg up, one arm up",1741.5500000061002,86,A,ownGroup,6,14,74500,Ko3v7THD2dqefyTAx,n3Q4td6qCse5aSv9e,html-slider-response
comprehension,5d262d647d4eaa0015b02814,600d35d6ba3ac54fa4ccd678,"legless man, alphabet letter i",6333.214999991469,H,H,otherGroup,5,9,61462,cGNuegcWYpFzhERdS,n2YifJ8rKzFZHWFnE,html-button-response
comprehension,5ab8ce6da3ba7a0001b41664,600d35e56737d85026d2c111,person looking left with knees bent sitting down,9725.660000010976,87,F,ownGroup,8,4,42850,RXcJQ3BxKX2p7ifiG,X8ZXNCLZ8HHxBrnGt,html-slider-response
comprehension,5eb7084a6b705a61bb8a8ce1,600d35e47553af4f8a66e79a,,7553.350000060163,I consent to participate.,,,,1,10518,,,html-button-response
comprehension,5e36be214de4516479b48f31,600d35ad658fd2282ac2f262,,11648.229999998875,,,,,21,104755,,,survey-html-form
comprehension,5c55ef37b957de0001401e82,600d35eca7a2224f97a7d04b,Someone falling backwards,11892.970000000787,C,C,otherGroup,3,7,38082,pCBFGvhS95qp75Kj2,mAuxNMzZ9CiZswZRo,html-button-response
comprehension,5e36be214de4516479b48f31,600d35ad658fd2282ac2f262,,1109.9899999971967,Submit Response,,,,22,105867,,,html-button-response
comprehension,5e488868adfd1a325207d76b,600d35fd01a0844105c1d422,"idk, looks like a potato",4837.565000001632,H,H,otherGroup,5,9,29068,WYftRDkmrSjsHDx7x,9AJjndrGjG3sFp7Y3,html-button-response
comprehension,5bafec568f3bd70001e4e5f8,600d35e3f2232e501c322bc6,,6232,,,,,2,53720,,,html-keyboard-response
comprehension,5d262d647d4eaa0015b02814,600d35d6ba3ac54fa4ccd678,"legless man, alphabet letter i",2989.2100000288337,85,H,otherGroup,5,10,64454,cGNuegcWYpFzhERdS,n2YifJ8rKzFZHWFnE,html-slider-response
comprehension,5feb6d490d786d743fec0d09,600d35c751988f4f478305b1,bunny,6370.690000010654,77,E,ownGroup,1,4,54088,cGNuegcWYpFzhERdS,8ALKyt78tFfcichK5,html-slider-response
comprehension,5e488868adfd1a325207d76b,600d35fd01a0844105c1d422,"idk, looks like a potato",2174.7600000016973,0,H,otherGroup,5,10,31244,WYftRDkmrSjsHDx7x,9AJjndrGjG3sFp7Y3,html-slider-response
comprehension,5ba8ba00d9c1080001fa4193,600d35cf44c4634c0e62b974,click the first one from the left,9999.210000038147,B,catch,catch,0,5,65434,catch,catch,html-button-response
comprehension,5d0bbf2717aa6b001b114518,600d35c1ec7cd94ec889ef8c,A man falling backwards arms up in the air,4213.5700000071665,C,C,otherGroup,9,15,78717,vkbunGDg7rfy7MdPD,bdvW5J5HSm9CWAmvL,html-button-response
comprehension,5f59dd330b08970009cfbd00,600d35d9658fd228a26ba710,"potato, nice connected, other head to right",5476.750000030734,16,H,ownGroup,7,4,63457,WYftRDkmrSjsHDx7x,9AJjndrGjG3sFp7Y3,html-slider-response
comprehension,5c55ef37b957de0001401e82,600d35eca7a2224f97a7d04b,Someone falling backwards,2867.5099999964004,86,C,otherGroup,3,8,40959,pCBFGvhS95qp75Kj2,mAuxNMzZ9CiZswZRo,html-slider-response
comprehension,5fc0da1ccfc57d00082b0bbb,600d35d829128c4e88586549,,5195,,,,,2,66085,,,html-keyboard-response
comprehension,5e488868adfd1a325207d76b,600d35fd01a0844105c1d422,Standing with one feet,1221.8149999971502,A,A,ownGroup,4,11,32468,znqg5oiJkLubdmf2a,j6hbY87Cv8JQ3pzuB,html-button-response
comprehension,5754a9daeb80c4000741a7fc,600d3615c1442748528253f3,,2532.374999980675,,,,,0,2588,,,html-keyboard-response
comprehension,5d0bbf2717aa6b001b114518,600d35c1ec7cd94ec889ef8c,A man falling backwards arms up in the air,1458.9899999991758,61,C,otherGroup,9,16,80180,vkbunGDg7rfy7MdPD,bdvW5J5HSm9CWAmvL,html-slider-response
comprehension,5e8b0bda9b3f3d023001ef7f,600d35f836051a4fe717143b,,20360.370000009425,I consent to participate.,,,,1,29672,,,html-button-response
comprehension,5e488868adfd1a325207d76b,600d35fd01a0844105c1d422,Standing with one feet,1517.810000001191,100,A,ownGroup,4,12,33987,znqg5oiJkLubdmf2a,j6hbY87Cv8JQ3pzuB,html-slider-response
comprehension,5c55ef37b957de0001401e82,600d35eca7a2224f97a7d04b,click the first one from the left,2426.0549999889918,G,catch,catch,0,9,43391,catch,catch,html-button-response
comprehension,5cf101ea48405a0018415d09,600d361529128c4efd9a64b6,,7924.924999999348,,,,,0,7989,,,html-keyboard-response
comprehension,5ea730e761f86b0f88aba18a,600d359c271cf04f7a10bd9c,,21270,,,,,21,127241,,,survey-html-form
comprehension,5f41211aecc86b08e8912a4d,600d35e81a210b4b41f23a4b,"a man sitting, facing right with a hat",11509,E,E,ownGroup,8,3,32736,ytHtL6X7FZLgNXnib,TEYpETCKMpuRJN97o,html-button-response
comprehension,5feb6d490d786d743fec0d09,600d35c751988f4f478305b1,click the first one from the left,4398.5850000754,G,catch,catch,0,5,58492,catch,catch,html-button-response
comprehension,5f59dd330b08970009cfbd00,600d35d9658fd228a26ba710,click the first one from the left,4153.700000024401,G,catch,catch,0,5,67618,catch,catch,html-button-response
comprehension,5ba8ba00d9c1080001fa4193,600d35cf44c4634c0e62b974,click the first one from the left,4670.764999988023,52,catch,catch,0,6,70106,catch,catch,html-slider-response
comprehension,5e488868adfd1a325207d76b,600d35fd01a0844105c1d422,LUCIFER!!!,2710.674999998446,C,C,ownGroup,2,13,36700,pCBFGvhS95qp75Kj2,piYKppHmfjKfbqXgJ,html-button-response
comprehension,5fc0da1ccfc57d00082b0bbb,600d35d829128c4e88586549,"the on on its knees, looks like hes praying",5072,B,B,otherGroup,9,3,71164,WXEAiwy3fGXsLfgTM,yGpY3B6jvDaHxJEYk,html-button-response
comprehension,5d274c8bc2bef0000167d805,600d3583f290344f4fde84b2,Pog depressionPog,22430.999999999985,F,F,otherGroup,2,19,146842,WYftRDkmrSjsHDx7x,9AJjndrGjG3sFp7Y3,html-button-response
comprehension,5cf101ea48405a0018415d09,600d361529128c4efd9a64b6,,2421.9449999800418,I consent to participate.,,,,1,10426,,,html-button-response
comprehension,5eb7084a6b705a61bb8a8ce1,600d35e47553af4f8a66e79a,,9864.310000091791,,,,,2,20384,,,html-keyboard-response
comprehension,5e488868adfd1a325207d76b,600d35fd01a0844105c1d422,LUCIFER!!!,1190.744999999879,100,C,ownGroup,2,14,37892,pCBFGvhS95qp75Kj2,piYKppHmfjKfbqXgJ,html-slider-response
comprehension,5e480840e98da32a65da6674,600d361a92aa594fc4c981bd,,2137.0499999902677,,,,,0,2190,,,html-keyboard-response
comprehension,5feb6d490d786d743fec0d09,600d35c751988f4f478305b1,click the first one from the left,3208.365000085905,100,catch,catch,0,6,61704,catch,catch,html-slider-response
comprehension,5f076c86c025b537201fcd06,600d35d4668a9341798a3428,Is standing straight with both feet,24941.185000003316,D,D,otherGroup,6,19,76321,znqg5oiJkLubdmf2a,nYXhDfNHSFDhQonSj,html-button-response
comprehension,5d262d647d4eaa0015b02814,600d35d6ba3ac54fa4ccd678,"both arms to the left, on knees",8447.14499998372,C,D,ownGroup,7,11,72904,Ko3v7THD2dqefyTAx,E5uTCaEvboyi9W2jE,html-button-response
comprehension,5c55ef37b957de0001401e82,600d35eca7a2224f97a7d04b,click the first one from the left,4999.679999993532,100,catch,catch,0,10,48397,catch,catch,html-slider-response
comprehension,5ab8ce6da3ba7a0001b41664,600d35e56737d85026d2c111,Bunny,11453.760000003967,E,E,otherGroup,1,5,54313,cGNuegcWYpFzhERdS,s8yg6tepLJ69GuzxQ,html-button-response
comprehension,5f59dd330b08970009cfbd00,600d35d9658fd228a26ba710,click the first one from the left,3627.655000076629,100,catch,catch,0,6,71253,catch,catch,html-slider-response
comprehension,5fbea10a0a8445052bfe10eb,600d35a807aa664f231c9c19,,23907.01500000432,,,,,21,122160,,,survey-html-form
comprehension,5efdfd4102ed42293e0c5ad1,600d35ce44c4634c0e62b973,weird thing that doesnt look like a person some say that it is running and flying,24805,G,G,ownGroup,16,3,78143,CbjGXYiEYK62c59ta,rQDvXHhRzEAAGu52K,html-button-response
comprehension,5f076c86c025b537201fcd06,600d35d4668a9341798a3428,Is standing straight with both feet,1979.589999995369,64,D,otherGroup,6,20,78303,znqg5oiJkLubdmf2a,nYXhDfNHSFDhQonSj,html-slider-response
comprehension,5d274c8bc2bef0000167d805,600d3583f290344f4fde84b2,Pog depressionPog,4342.004999999976,100,F,otherGroup,2,20,151187,WYftRDkmrSjsHDx7x,9AJjndrGjG3sFp7Y3,html-slider-response
comprehension,5feb6d490d786d743fec0d09,600d35c751988f4f478305b1,hands up in the air,3097.3399999784306,C,C,otherGroup,5,7,64807,JP4KRrdASPaZ6Yooo,k6aatfn6D3cGqmLKj,html-button-response
comprehension,5e488868adfd1a325207d76b,600d35fd01a0844105c1d422,"a man sitting, facing left with no hat",4197.880000003352,F,F,ownGroup,8,15,42092,ytHtL6X7FZLgNXnib,TEYpETCKMpuRJN97o,html-button-response
comprehension,5d262d647d4eaa0015b02814,600d35d6ba3ac54fa4ccd678,"both arms to the left, on knees",4314.759999979287,75,D,ownGroup,7,12,77222,Ko3v7THD2dqefyTAx,E5uTCaEvboyi9W2jE,html-slider-response
comprehension,5fbea10a0a8445052bfe10eb,600d35a807aa664f231c9c19,,3557.0849999785423,Submit Response,,,,22,125719,,,html-button-response
comprehension,5cf101ea48405a0018415d09,600d361529128c4efd9a64b6,,5993.635000020731,,,,,2,16421,,,html-keyboard-response
comprehension,5e488868adfd1a325207d76b,600d35fd01a0844105c1d422,"a man sitting, facing left with no hat",1333.7649999994028,100,F,ownGroup,8,16,43428,ytHtL6X7FZLgNXnib,TEYpETCKMpuRJN97o,html-slider-response
comprehension,5fc0da1ccfc57d00082b0bbb,600d35d829128c4e88586549,"the on on its knees, looks like hes praying",6549,79,B,otherGroup,9,4,77719,WXEAiwy3fGXsLfgTM,yGpY3B6jvDaHxJEYk,html-slider-response
comprehension,5ab8ce6da3ba7a0001b41664,600d35e56737d85026d2c111,Bunny,4415.215000000899,54,E,otherGroup,1,6,58737,cGNuegcWYpFzhERdS,s8yg6tepLJ69GuzxQ,html-slider-response
comprehension,5c55ef37b957de0001401e82,600d35eca7a2224f97a7d04b,"One leg up, doing the thriller",4553.4349999943515,A,A,otherGroup,6,11,52963,Ko3v7THD2dqefyTAx,AfLPQRQ2yMkSegvuD,html-button-response
comprehension,5f41211aecc86b08e8912a4d,600d35e81a210b4b41f23a4b,"a man sitting, facing right with a hat",8828,36,E,ownGroup,8,4,41569,ytHtL6X7FZLgNXnib,TEYpETCKMpuRJN97o,html-slider-response
comprehension,5754a9daeb80c4000741a7fc,600d3615c1442748528253f3,,11202.040000003763,I consent to participate.,,,,1,13798,,,html-button-response
comprehension,5e488868adfd1a325207d76b,600d35fd01a0844105c1d422,Looks like it has bunny ears,998.1000000007043,E,E,otherGroup,6,17,44428,gevP48xWek252Nr68,2KrP2MJYyvmTxWwgv,html-button-response
comprehension,5ba85a9d032d360001b83177,600d3617edee9f5020301c8e,,4503.819999983534,,,,,0,4615,,,html-keyboard-response
comprehension,5feb6d490d786d743fec0d09,600d35c751988f4f478305b1,hands up in the air,3482.4299999745563,100,C,otherGroup,5,8,68294,JP4KRrdASPaZ6Yooo,k6aatfn6D3cGqmLKj,html-slider-response
comprehension,5e488868adfd1a325207d76b,600d35fd01a0844105c1d422,Looks like it has bunny ears,1582.0649999986927,100,E,otherGroup,6,18,46011,gevP48xWek252Nr68,2KrP2MJYyvmTxWwgv,html-slider-response
comprehension,5ba8ba00d9c1080001fa4193,600d35cf44c4634c0e62b974,Person who wants to stand up from the ground.,10203.020000015385,F,G,ownGroup,10,7,80311,dnzYp4v3YyS6WeYcY,zz94dJqE5mM4vERqy,html-button-response
comprehension,5c55ef37b957de0001401e82,600d35eca7a2224f97a7d04b,"One leg up, doing the thriller",3004.2300000059186,93,A,otherGroup,6,12,55974,Ko3v7THD2dqefyTAx,AfLPQRQ2yMkSegvuD,html-slider-response
comprehension,5ba85a9d032d360001b83177,600d3617edee9f5020301c8e,,1948.369999998249,I consent to participate.,,,,1,6586,,,html-button-response
comprehension,5fc0da1ccfc57d00082b0bbb,600d35d829128c4e88586549,a guy falling backward with 2 hands in the air,3807,C,C,otherGroup,10,5,81529,aLuopkgfJ8GHWfPNP,diJXDCjSTTMwuMQ7A,html-button-response
comprehension,5f59dd330b08970009cfbd00,600d35d9658fd228a26ba710,"A ghost with both hands up, as if shrugging.",8061.289999983273,C,C,otherGroup,10,7,79327,tpY4W7eRoxEtupkmw,Q72XWrb8xmoDeJgP3,html-button-response
comprehension,5d262d647d4eaa0015b02814,600d35d6ba3ac54fa4ccd678,zombie,4685.305000049993,A,A,otherGroup,1,13,81910,RfQj6i5FTEKewPtdP,bEgykACcvR4qXLeyT,html-button-response
comprehension,5ba8ba00d9c1080001fa4193,600d35cf44c4634c0e62b974,Person who wants to stand up from the ground.,2215.329999977257,67,G,ownGroup,10,8,82528,dnzYp4v3YyS6WeYcY,zz94dJqE5mM4vERqy,html-slider-response
comprehension,5e8b0bda9b3f3d023001ef7f,600d35f836051a4fe717143b,,15128.205000015441,,,,,2,44802,,,html-keyboard-response
comprehension,5754a9daeb80c4000741a7fc,600d3615c1442748528253f3,,4715.540000004694,,,,,2,18515,,,html-keyboard-response
comprehension,5c55ef37b957de0001401e82,600d35eca7a2224f97a7d04b,sitting person,2382.834999996703,F,F,ownGroup,2,13,58369,CbjGXYiEYK62c59ta,EiGsis3ca2vX9QLpE,html-button-response
comprehension,5efdfd4102ed42293e0c5ad1,600d35ce44c4634c0e62b973,weird thing that doesnt look like a person some say that it is running and flying,8990,95,G,ownGroup,16,4,87144,CbjGXYiEYK62c59ta,rQDvXHhRzEAAGu52K,html-slider-response
comprehension,5fc0da1ccfc57d00082b0bbb,600d35d829128c4e88586549,a guy falling backward with 2 hands in the air,2522,84,C,otherGroup,10,6,84053,aLuopkgfJ8GHWfPNP,diJXDCjSTTMwuMQ7A,html-slider-response
comprehension,5f076c86c025b537201fcd06,600d35d4668a9341798a3428,,9236.835000003339,,,,,21,87541,,,survey-html-form
comprehension,5d262d647d4eaa0015b02814,600d35d6ba3ac54fa4ccd678,zombie,2465.070000034757,85,A,otherGroup,1,14,84378,RfQj6i5FTEKewPtdP,bEgykACcvR4qXLeyT,html-slider-response
comprehension,5e488868adfd1a325207d76b,600d35fd01a0844105c1d422,It's like a dancing woman with a long dress. Without ears,4462.545000002137,F,G,ownGroup,12,19,50476,hXJrmsG9Q2uWDXN7T,gshiC5i6aoPJL3yat,html-button-response
comprehension,5f59dd330b08970009cfbd00,600d35d9658fd228a26ba710,"A ghost with both hands up, as if shrugging.",3278.2300000544637,68,C,otherGroup,10,8,82609,tpY4W7eRoxEtupkmw,Q72XWrb8xmoDeJgP3,html-slider-response
comprehension,5eb7084a6b705a61bb8a8ce1,600d35e47553af4f8a66e79a,looks like a man with a leg up on the left side.,13067.03999999445,A,A,otherGroup,13,3,33460,WXEAiwy3fGXsLfgTM,eRsyj87Bj8p8ph33i,html-button-response
comprehension,5f076c86c025b537201fcd06,600d35d4668a9341798a3428,,1229.0799999973387,Submit Response,,,,22,88775,,,html-button-response
comprehension,5ba85a9d032d360001b83177,600d3617edee9f5020301c8e,,4683.560000034049,,,,,2,11276,,,html-keyboard-response
comprehension,5e488868adfd1a325207d76b,600d35fd01a0844105c1d422,It's like a dancing woman with a long dress. Without ears,1221.2999999974272,100,G,ownGroup,12,20,51700,hXJrmsG9Q2uWDXN7T,gshiC5i6aoPJL3yat,html-slider-response
comprehension,5c55ef37b957de0001401e82,600d35eca7a2224f97a7d04b,sitting person,2624.004999990575,84,F,ownGroup,2,14,60999,CbjGXYiEYK62c59ta,EiGsis3ca2vX9QLpE,html-slider-response
comprehension,5ba8ba00d9c1080001fa4193,600d35cf44c4634c0e62b974,Is standing on one feet or kicking with arms up,4277.145000000019,A,A,otherGroup,10,9,86808,znqg5oiJkLubdmf2a,nYXhDfNHSFDhQonSj,html-button-response
comprehension,5ab8ce6da3ba7a0001b41664,600d35e56737d85026d2c111,the guy kneeling down,9166.420000008657,D,B,ownGroup,4,7,67912,NLsYdbJ2XrBW64HqK,HuJDt7rLM3oPmxzQN,html-button-response
comprehension,5feb6d490d786d743fec0d09,600d35c751988f4f478305b1,guy sitting down with legs and no ears,8111.1549999332055,F,F,otherGroup,8,9,76410,CbjGXYiEYK62c59ta,Qu3W23ScTXpnfWBH6,html-button-response
comprehension,5f59dd330b08970009cfbd00,600d35d9658fd228a26ba710,depressed man looking left with his knees bent,4386.63500000257,F,F,ownGroup,8,9,87003,RXcJQ3BxKX2p7ifiG,yWRdsvdGgjJib8TGk,html-button-response
comprehension,5f41211aecc86b08e8912a4d,600d35e81a210b4b41f23a4b,"One leg up, doing the thriller",11941,A,A,otherGroup,6,5,53512,Ko3v7THD2dqefyTAx,AfLPQRQ2yMkSegvuD,html-button-response
comprehension,5c639438fe1e9a0001a27f08,600d361a56935a4ec583f402,,19998,,,,,0,20000,,,html-keyboard-response
comprehension,5d3f2ac26a5b1e0016a91a82,600d36253bd23b2934dd7b47,,7658.920000074431,,,,,0,7671,,,html-keyboard-response
comprehension,5ba8ba00d9c1080001fa4193,600d35cf44c4634c0e62b974,Is standing on one feet or kicking with arms up,3369.905000028666,82,A,otherGroup,10,10,90179,znqg5oiJkLubdmf2a,nYXhDfNHSFDhQonSj,html-slider-response
comprehension,5ab8ce6da3ba7a0001b41664,600d35e56737d85026d2c111,the guy kneeling down,3206.7499999975553,56,B,ownGroup,4,8,71127,NLsYdbJ2XrBW64HqK,HuJDt7rLM3oPmxzQN,html-slider-response
comprehension,5e8b0bda9b3f3d023001ef7f,600d35f836051a4fe717143b,click the first one from the left,7761.679999995977,G,catch,catch,0,3,52570,catch,catch,html-button-response
comprehension,5c55ef37b957de0001401e82,600d35eca7a2224f97a7d04b,it has a weird shape,4779.2449999979,G,G,ownGroup,5,15,65786,CbjGXYiEYK62c59ta,EiGsis3ca2vX9QLpE,html-button-response
comprehension,5e480840e98da32a65da6674,600d361a92aa594fc4c981bd,,18684.28000001586,I consent to participate.,,,,1,20883,,,html-button-response
comprehension,5f22bd9b23ef4103aee75eb5,600d362d7a49d54e905a2105,,6998.429999999644,,,,,0,7037,,,html-keyboard-response
comprehension,5eb7084a6b705a61bb8a8ce1,600d35e47553af4f8a66e79a,looks like a man with a leg up on the left side.,6234.500000020489,94,A,otherGroup,13,4,39699,WXEAiwy3fGXsLfgTM,eRsyj87Bj8p8ph33i,html-slider-response
comprehension,5f59dd330b08970009cfbd00,600d35d9658fd228a26ba710,depressed man looking left with his knees bent,2419.2800000309944,88,F,ownGroup,8,10,89426,RXcJQ3BxKX2p7ifiG,yWRdsvdGgjJib8TGk,html-slider-response
comprehension,5feb6d490d786d743fec0d09,600d35c751988f4f478305b1,guy sitting down with legs and no ears,4373.215000028722,93,F,otherGroup,8,10,80788,CbjGXYiEYK62c59ta,Qu3W23ScTXpnfWBH6,html-slider-response
comprehension,5efdfd4102ed42293e0c5ad1,600d35ce44c4634c0e62b973,the man that is facing us,8326,H,H,ownGroup,6,5,95475,ytHtL6X7FZLgNXnib,TEYpETCKMpuRJN97o,html-button-response
comprehension,5f41211aecc86b08e8912a4d,600d35e81a210b4b41f23a4b,"One leg up, doing the thriller",2056,25,A,otherGroup,6,6,55570,Ko3v7THD2dqefyTAx,AfLPQRQ2yMkSegvuD,html-slider-response
comprehension,5f22bd9b23ef4103aee75eb5,600d362d7a49d54e905a2105,,1409.9800000003597,I consent to participate.,,,,1,8451,,,html-button-response
comprehension,5e34d1e00770894aef084447,600d36309b60d8409d80c466,,1596.570000052452,,,,,0,1615,,,html-keyboard-response
comprehension,5c55ef37b957de0001401e82,600d35eca7a2224f97a7d04b,it has a weird shape,2435.429999997723,77,G,ownGroup,5,16,68228,CbjGXYiEYK62c59ta,EiGsis3ca2vX9QLpE,html-slider-response
comprehension,5faaf11bd8a7fc52c1e6eef8,600d362d832b184fa04f83c5,,2002.5049999999992,,,,,0,2013,,,html-keyboard-response
comprehension,5efdfd4102ed42293e0c5ad1,600d35ce44c4634c0e62b973,the man that is facing us,2218,84,H,ownGroup,6,6,97696,ytHtL6X7FZLgNXnib,TEYpETCKMpuRJN97o,html-slider-response
comprehension,5fc0da1ccfc57d00082b0bbb,600d35d829128c4e88586549,"Person sitting down, facing left, weird things sticking out",10219,F,G,ownGroup,9,7,94274,ytHtL6X7FZLgNXnib,6ry2id9XgeGjXzvKc,html-button-response
comprehension,5d0bbf2717aa6b001b114518,600d35c1ec7cd94ec889ef8c,"both arms to the left, on knees",27533.030000005965,D,D,ownGroup,7,17,107716,Ko3v7THD2dqefyTAx,E5uTCaEvboyi9W2jE,html-button-response
comprehension,5f22bd9b23ef4103aee75eb5,600d362d7a49d54e905a2105,,2203.805000000102,,,,,2,10656,,,html-keyboard-response
comprehension,5d3f2ac26a5b1e0016a91a82,600d36253bd23b2934dd7b47,,4781.740000005811,I consent to participate.,,,,1,12456,,,html-button-response
comprehension,5feb6d490d786d743fec0d09,600d35c751988f4f478305b1,man standing on one leg,3590.804999927059,A,A,otherGroup,5,11,84384,vKJfPn5PH2B49D7Ko,dANjNmhL9y9BW38Gd,html-button-response
comprehension,5eb7084a6b705a61bb8a8ce1,600d35e47553af4f8a66e79a,click the first one from the left,4365.104999975301,G,catch,catch,0,5,44068,catch,catch,html-button-response
comprehension,5e488868adfd1a325207d76b,600d35fd01a0844105c1d422,,9806.479999999283,,,,,21,61509,,,survey-html-form
comprehension,5ba8ba00d9c1080001fa4193,600d35cf44c4634c0e62b974,the one that looks like standing up praying( or giving something),5835.0700000301,D,D,ownGroup,12,11,96017,fbBEYS2xBiuER4yog,yanmYyJbogZxpMhs5,html-button-response
comprehension,5fc0da1ccfc57d00082b0bbb,600d35d829128c4e88586549,"Person sitting down, facing left, weird things sticking out",2055,73,G,ownGroup,9,8,96330,ytHtL6X7FZLgNXnib,6ry2id9XgeGjXzvKc,html-slider-response
comprehension,5ba85a9d032d360001b83177,600d3617edee9f5020301c8e,bunny,10478.545000078157,E,E,ownGroup,1,3,21777,jK9WHXtaAGcGZpsZQ,p9eNbJEPFbqTSTYcR,html-button-response
comprehension,5d0bbf2717aa6b001b114518,600d35c1ec7cd94ec889ef8c,"both arms to the left, on knees",1733.234999992419,5,D,ownGroup,7,18,109452,Ko3v7THD2dqefyTAx,E5uTCaEvboyi9W2jE,html-slider-response
comprehension,5f41211aecc86b08e8912a4d,600d35e81a210b4b41f23a4b,click the first one from the left,4472,G,catch,catch,0,7,60044,catch,catch,html-button-response
comprehension,5e488868adfd1a325207d76b,600d35fd01a0844105c1d422,,869.9949999972887,Submit Response,,,,22,62380,,,html-button-response
comprehension,5e480840e98da32a65da6674,600d361a92aa594fc4c981bd,,6135.934999998426,,,,,2,27020,,,html-keyboard-response
comprehension,5c639438fe1e9a0001a27f08,600d361a56935a4ec583f402,,7260,I consent to participate.,,,,1,27262,,,html-button-response
comprehension,5efdfd4102ed42293e0c5ad1,600d35ce44c4634c0e62b973,Y guy,3752,C,C,otherGroup,2,7,101450,NLsYdbJ2XrBW64HqK,9hRopcMnnYmR9e2dW,html-button-response
comprehension,5ba8ba00d9c1080001fa4193,600d35cf44c4634c0e62b974,the one that looks like standing up praying( or giving something),2084.8150000092573,87,D,ownGroup,12,12,98103,fbBEYS2xBiuER4yog,yanmYyJbogZxpMhs5,html-slider-response
comprehension,5f22bd9b23ef4103aee75eb5,600d362d7a49d54e905a2105,This one looks like Rabbit,3388.495000000148,E,E,ownGroup,5,3,14050,gevP48xWek252Nr68,hgkygjLRxCX9996Hf,html-button-response
comprehension,5e91ac8949a5ba4de261368c,600d360e28de48289cec979a,,39683.73500002781,I consent to participate.,,,,1,43476,,,html-button-response
comprehension,5eb7084a6b705a61bb8a8ce1,600d35e47553af4f8a66e79a,click the first one from the left,3276.240000035614,100,catch,catch,0,6,47347,catch,catch,html-slider-response
comprehension,5d3f2ac26a5b1e0016a91a82,600d36253bd23b2934dd7b47,,3979.6500001102686,,,,,2,16437,,,html-keyboard-response
comprehension,5ba85a9d032d360001b83177,600d3617edee9f5020301c8e,bunny,2716.2699999753386,77,E,ownGroup,1,4,24508,jK9WHXtaAGcGZpsZQ,p9eNbJEPFbqTSTYcR,html-slider-response
comprehension,5ab8ce6da3ba7a0001b41664,600d35e56737d85026d2c111,"both arms to the left, on knees",9139.199999990524,B,D,ownGroup,7,9,80277,Ko3v7THD2dqefyTAx,E5uTCaEvboyi9W2jE,html-button-response
comprehension,5d0bbf2717aa6b001b114518,600d35c1ec7cd94ec889ef8c,click the first one from the left,3139.979999992647,G,catch,catch,0,19,112596,catch,catch,html-button-response
comprehension,5c55ef37b957de0001401e82,600d35eca7a2224f97a7d04b,A woman kneeling looking up while holding a tray,6653.740000008838,D,B,ownGroup,9,17,74891,vkbunGDg7rfy7MdPD,bdvW5J5HSm9CWAmvL,html-button-response
comprehension,5fc0da1ccfc57d00082b0bbb,600d35d829128c4e88586549,Guy with 1 leg/foot up,3731,A,A,otherGroup,6,9,100063,JP4KRrdASPaZ6Yooo,FtMMLpE3SZ6PtDBSr,html-button-response
comprehension,5feb6d490d786d743fec0d09,600d35c751988f4f478305b1,man standing on one leg,4713.935000007041,100,A,otherGroup,5,12,89102,vKJfPn5PH2B49D7Ko,dANjNmhL9y9BW38Gd,html-slider-response
comprehension,5efdfd4102ed42293e0c5ad1,600d35ce44c4634c0e62b973,Y guy,2476,99,C,otherGroup,2,8,103930,NLsYdbJ2XrBW64HqK,9hRopcMnnYmR9e2dW,html-slider-response
comprehension,5c639438fe1e9a0001a27f08,600d361a56935a4ec583f402,,3838,,,,,2,31102,,,html-keyboard-response
comprehension,5ba8ba00d9c1080001fa4193,600d35cf44c4634c0e62b974,Looks like a sitting man or a turtle.,3163.769999984652,F,F,otherGroup,9,13,101269,dnzYp4v3YyS6WeYcY,uygYhykTj3MM8xQbk,html-button-response
comprehension,5e34d1e00770894aef084447,600d36309b60d8409d80c466,,8563.774999929592,I consent to participate.,,,,1,10181,,,html-button-response
comprehension,5f22bd9b23ef4103aee75eb5,600d362d7a49d54e905a2105,This one looks like Rabbit,3303.509999999733,82,E,ownGroup,5,4,17359,gevP48xWek252Nr68,hgkygjLRxCX9996Hf,html-slider-response
comprehension,5ab8ce6da3ba7a0001b41664,600d35e56737d85026d2c111,"both arms to the left, on knees",2744.3700000003446,42,D,ownGroup,7,10,83028,Ko3v7THD2dqefyTAx,E5uTCaEvboyi9W2jE,html-slider-response
comprehension,5fc0da1ccfc57d00082b0bbb,600d35d829128c4e88586549,Guy with 1 leg/foot up,2851,79,A,otherGroup,6,10,102916,JP4KRrdASPaZ6Yooo,FtMMLpE3SZ6PtDBSr,html-slider-response
comprehension,5d0bbf2717aa6b001b114518,600d35c1ec7cd94ec889ef8c,click the first one from the left,3532.7399999951012,100,catch,catch,0,20,116132,catch,catch,html-slider-response
comprehension,5e34d1e00770894aef084447,600d36309b60d8409d80c466,,2000.9149999823421,,,,,2,12184,,,html-keyboard-response
comprehension,5754a9daeb80c4000741a7fc,600d3615c1442748528253f3,Looks like a person looking at the left with his arms behind his back.,20540.73999999673,F,G,ownGroup,15,3,39064,9wpj9KkiFEADFNfx8,CTWQ52YTATppdzer5,html-button-response
comprehension,5ba8ba00d9c1080001fa4193,600d35cf44c4634c0e62b974,Looks like a sitting man or a turtle.,2441.110000014305,82,F,otherGroup,9,14,103711,dnzYp4v3YyS6WeYcY,uygYhykTj3MM8xQbk,html-slider-response
comprehension,5c55ef37b957de0001401e82,600d35eca7a2224f97a7d04b,A woman kneeling looking up while holding a tray,3984.0000000112923,77,B,ownGroup,9,18,78880,vkbunGDg7rfy7MdPD,bdvW5J5HSm9CWAmvL,html-slider-response
comprehension,5d3f2ac26a5b1e0016a91a82,600d36253bd23b2934dd7b47,turtle,5609.865000005811,G,F,ownGroup,1,3,22050,dnzYp4v3YyS6WeYcY,TkjPiTcFnF8tateYW,html-button-response
comprehension,5f59dd330b08970009cfbd00,600d35d9658fd228a26ba710,"Triangle on the right side of square head, a little bit deformed",12801.68999999296,A,B,otherGroup,12,11,102235,aLuopkgfJ8GHWfPNP,Q6SRkZJRdjCHvmN38,html-button-response
comprehension,5f41211aecc86b08e8912a4d,600d35e81a210b4b41f23a4b,click the first one from the left,8816,100,catch,catch,0,8,68862,catch,catch,html-slider-response
comprehension,5cf101ea48405a0018415d09,600d361529128c4efd9a64b6,Someone falling backwards,27796.074999991106,C,C,otherGroup,3,3,44234,pCBFGvhS95qp75Kj2,mAuxNMzZ9CiZswZRo,html-button-response
comprehension,5e480840e98da32a65da6674,600d361a92aa594fc4c981bd,men sitting with nee up,8629.174999980023,F,F,ownGroup,5,3,35660,YLWsekeYoH9Nw4RCZ,QRnYtSZo4tMJcupJr,html-button-response
comprehension,5c639438fe1e9a0001a27f08,600d361a56935a4ec583f402,A woman kneeling looking up,4854,B,B,otherGroup,5,3,35958,vkbunGDg7rfy7MdPD,bdvW5J5HSm9CWAmvL,html-button-response
comprehension,5f22bd9b23ef4103aee75eb5,600d362d7a49d54e905a2105,bent penis ejaculating diamond spunk into the sky,4714.629999999488,H,H,ownGroup,8,5,22078,jK9WHXtaAGcGZpsZQ,p9eNbJEPFbqTSTYcR,html-button-response
comprehension,5e34d1e00770894aef084447,600d36309b60d8409d80c466,bunny ears,3457.4449999490753,E,E,otherGroup,2,3,15644,WYftRDkmrSjsHDx7x,MXrLRWDEy9T8DeiQv,html-button-response
comprehension,5ab8ce6da3ba7a0001b41664,600d35e56737d85026d2c111,Looks like a garbage bag,4901.51500000502,H,H,ownGroup,5,11,87938,wjwzCZqktezhoNwdn,mHrDkW2ufmq5577vw,html-button-response
comprehension,5efdfd4102ed42293e0c5ad1,600d35ce44c4634c0e62b973,Sitting sideways. No 2 things on top,6774,H,F,ownGroup,7,9,110706,wjwzCZqktezhoNwdn,aE4iPm58cdyA733eQ,html-button-response
comprehension,5e8b0bda9b3f3d023001ef7f,600d35f836051a4fe717143b,click the first one from the left,17334.514999995008,56,catch,catch,0,4,69908,catch,catch,html-slider-response
comprehension,5754a9daeb80c4000741a7fc,600d3615c1442748528253f3,Looks like a person looking at the left with his arms behind his back.,4507.730000012089,45,G,ownGroup,15,4,43574,9wpj9KkiFEADFNfx8,CTWQ52YTATppdzer5,html-slider-response
comprehension,5f22bd9b23ef4103aee75eb5,600d362d7a49d54e905a2105,bent penis ejaculating diamond spunk into the sky,1921.6450000003533,100,H,ownGroup,8,6,24003,jK9WHXtaAGcGZpsZQ,p9eNbJEPFbqTSTYcR,html-slider-response
comprehension,5f59dd330b08970009cfbd00,600d35d9658fd228a26ba710,"Triangle on the right side of square head, a little bit deformed",3842.1699999598786,65,B,otherGroup,12,12,106086,aLuopkgfJ8GHWfPNP,Q6SRkZJRdjCHvmN38,html-slider-response
comprehension,5fc0da1ccfc57d00082b0bbb,600d35d829128c4e88586549,sits facing forward with nothing on his head,5623,H,H,ownGroup,8,11,108541,wjwzCZqktezhoNwdn,eq5bWXrnvhaHAifGC,html-button-response
comprehension,5d3f2ac26a5b1e0016a91a82,600d36253bd23b2934dd7b47,turtle,4017.78499991633,36,F,ownGroup,1,4,26070,dnzYp4v3YyS6WeYcY,TkjPiTcFnF8tateYW,html-slider-response
comprehension,5eb7084a6b705a61bb8a8ce1,600d35e47553af4f8a66e79a,"looks like a mice, with a square and triangular ear, looking left",10336.714999983087,B,B,ownGroup,12,7,57688,NLsYdbJ2XrBW64HqK,M4qbRoF5yXYPGhotP,html-button-response
comprehension,5ba85a9d032d360001b83177,600d3617edee9f5020301c8e,"kneeling down, looking at the ground with the arms open",10811.730000074022,B,B,otherGroup,10,5,35334,pCBFGvhS95qp75Kj2,9ekJDuCaLy9fa2n2N,html-button-response
comprehension,5efdfd4102ed42293e0c5ad1,600d35ce44c4634c0e62b973,Sitting sideways. No 2 things on top,2905,97,F,ownGroup,7,10,113614,wjwzCZqktezhoNwdn,aE4iPm58cdyA733eQ,html-slider-response
comprehension,5922aca66be73a0001cfd1d2,600d363c1c13a0498eef5a9c,,3258.0000000307336,,,,,0,3462,,,html-keyboard-response
comprehension,5fc0da1ccfc57d00082b0bbb,600d35d829128c4e88586549,sits facing forward with nothing on his head,1665,73,H,ownGroup,8,12,110208,wjwzCZqktezhoNwdn,eq5bWXrnvhaHAifGC,html-slider-response
comprehension,5e480840e98da32a65da6674,600d361a92aa594fc4c981bd,men sitting with nee up,4683.084999996936,100,F,ownGroup,5,4,40345,YLWsekeYoH9Nw4RCZ,QRnYtSZo4tMJcupJr,html-slider-response
comprehension,5f41211aecc86b08e8912a4d,600d35e81a210b4b41f23a4b,"kneeling down, looking at the ground with the arms open",5023,C,B,otherGroup,10,9,73888,pCBFGvhS95qp75Kj2,9ekJDuCaLy9fa2n2N,html-button-response
comprehension,5c639438fe1e9a0001a27f08,600d361a56935a4ec583f402,A woman kneeling looking up,4489,100,B,otherGroup,5,4,40451,vkbunGDg7rfy7MdPD,bdvW5J5HSm9CWAmvL,html-slider-response
comprehension,5754a9daeb80c4000741a7fc,600d3615c1442748528253f3,click the first one from the left,2641.2149999814574,G,catch,catch,0,5,46218,catch,catch,html-button-response
comprehension,5cf101ea48405a0018415d09,600d361529128c4efd9a64b6,Someone falling backwards,5536.545000009937,66,C,otherGroup,3,4,49777,pCBFGvhS95qp75Kj2,mAuxNMzZ9CiZswZRo,html-slider-response
comprehension,5e34d1e00770894aef084447,600d36309b60d8409d80c466,bunny ears,4161.315000033937,98,E,otherGroup,2,4,19808,WYftRDkmrSjsHDx7x,MXrLRWDEy9T8DeiQv,html-slider-response
comprehension,5eb7084a6b705a61bb8a8ce1,600d35e47553af4f8a66e79a,"looks like a mice, with a square and triangular ear, looking left",2491.7800000403076,100,B,ownGroup,12,8,60182,NLsYdbJ2XrBW64HqK,M4qbRoF5yXYPGhotP,html-slider-response
comprehension,5ba8ba00d9c1080001fa4193,600d35cf44c4634c0e62b974,It has triangle bunny ears.,8330.259999958798,E,E,ownGroup,6,15,112044,hMRQdqJMNnJdkQdaZ,YqXMc6N55tPPG95HT,html-button-response
comprehension,5f41211aecc86b08e8912a4d,600d35e81a210b4b41f23a4b,"kneeling down, looking at the ground with the arms open",2146,63,B,otherGroup,10,10,76038,pCBFGvhS95qp75Kj2,9ekJDuCaLy9fa2n2N,html-slider-response
comprehension,5ab8ce6da3ba7a0001b41664,600d35e56737d85026d2c111,Looks like a garbage bag,5540.399999998044,74,H,ownGroup,5,12,93485,wjwzCZqktezhoNwdn,mHrDkW2ufmq5577vw,html-slider-response
comprehension,5c55ef37b957de0001401e82,600d35eca7a2224f97a7d04b,"He looks like a monk/pope someone in church clothes, facing left side. might be holding something in his hands",9177.665000010165,D,D,ownGroup,20,19,88066,tpY4W7eRoxEtupkmw,GxLyHgZdotiHncJai,html-button-response
comprehension,5eafef786e883d0233b2270a,600d361ca2bd644b801396c9,,44529.114999999365,,,,,0,44571,,,html-keyboard-response
comprehension,5c639438fe1e9a0001a27f08,600d361a56935a4ec583f402,click the first one from the left,2891,G,catch,catch,0,5,43343,catch,catch,html-button-response
comprehension,5e480840e98da32a65da6674,600d361a92aa594fc4c981bd,click the first one from the left,3427.189999987604,G,catch,catch,0,5,43774,catch,catch,html-button-response
comprehension,5ba8ba00d9c1080001fa4193,600d35cf44c4634c0e62b974,It has triangle bunny ears.,1771.390000008978,94,E,ownGroup,6,16,113817,hMRQdqJMNnJdkQdaZ,YqXMc6N55tPPG95HT,html-slider-response
comprehension,5e91ac8949a5ba4de261368c,600d360e28de48289cec979a,,15352.759999979753,,,,,2,58838,,,html-keyboard-response
comprehension,5f59dd330b08970009cfbd00,600d35d9658fd228a26ba710,"triangle bunny ears, square head looking down to our right",5821.230000001378,E,E,otherGroup,10,13,111927,hMRQdqJMNnJdkQdaZ,thiQcaJ2bb5dFM33E,html-button-response
comprehension,5ba85a9d032d360001b83177,600d3617edee9f5020301c8e,"kneeling down, looking at the ground with the arms open",4546.695000026375,80,B,otherGroup,10,6,39891,pCBFGvhS95qp75Kj2,9ekJDuCaLy9fa2n2N,html-slider-response
comprehension,5f22bd9b23ef4103aee75eb5,600d362d7a49d54e905a2105,"dancing emoji, dancing woman",6660.2249999996275,G,G,otherGroup,4,7,30666,cGNuegcWYpFzhERdS,n2YifJ8rKzFZHWFnE,html-button-response
comprehension,5efdfd4102ed42293e0c5ad1,600d35ce44c4634c0e62b973,sitting,5077,B,B,otherGroup,1,11,118694,JP4KRrdASPaZ6Yooo,QzpwtyuzRYiem3fSe,html-button-response
comprehension,5d3f2ac26a5b1e0016a91a82,600d36253bd23b2934dd7b47,"penguin with a backpack, one foot up one down",6771.120000164956,A,A,ownGroup,9,5,32845,ALPGtS424urRqjoB7,rquDbQbq4JWtwJAF3,html-button-response
comprehension,5754a9daeb80c4000741a7fc,600d3615c1442748528253f3,click the first one from the left,4937.195000005886,100,catch,catch,0,6,51157,catch,catch,html-slider-response
comprehension,5c55ef37b957de0001401e82,600d35eca7a2224f97a7d04b,"He looks like a monk/pope someone in church clothes, facing left side. might be holding something in his hands",2956.224999987171,78,D,ownGroup,20,20,91029,tpY4W7eRoxEtupkmw,GxLyHgZdotiHncJai,html-slider-response
comprehension,5e480840e98da32a65da6674,600d361a92aa594fc4c981bd,click the first one from the left,2319.789999979548,100,catch,catch,0,6,46096,catch,catch,html-slider-response
comprehension,5fc0da1ccfc57d00082b0bbb,600d35d829128c4e88586549,Looks like it has bunny ears,5937,E,E,otherGroup,6,13,116147,jK9WHXtaAGcGZpsZQ,s4iDhxc6wyabMRhgh,html-button-response
comprehension,5f22bd9b23ef4103aee75eb5,600d362d7a49d54e905a2105,"dancing emoji, dancing woman",1427.6700000000346,100,G,otherGroup,4,8,32117,cGNuegcWYpFzhERdS,n2YifJ8rKzFZHWFnE,html-slider-response
comprehension,5ab8ce6da3ba7a0001b41664,600d35e56737d85026d2c111,click the first one from the left,3729.1350000014063,G,catch,catch,0,13,97222,catch,catch,html-button-response
comprehension,5d262d647d4eaa0015b02814,600d35d6ba3ac54fa4ccd678,"Sitting down person, looking up/down. Has no ears. Has the back against the right wall.",32443.394999951124,F,F,ownGroup,17,15,116825,hXJrmsG9Q2uWDXN7T,mGLLgXimwZwoxxH5h,html-button-response
comprehension,5f59dd330b08970009cfbd00,600d35d9658fd228a26ba710,"triangle bunny ears, square head looking down to our right",2966.48499998264,100,E,otherGroup,10,14,114899,hMRQdqJMNnJdkQdaZ,thiQcaJ2bb5dFM33E,html-slider-response
comprehension,5d3f2ac26a5b1e0016a91a82,600d36253bd23b2934dd7b47,"penguin with a backpack, one foot up one down",1979.0000000502914,88,A,ownGroup,9,6,34827,ALPGtS424urRqjoB7,rquDbQbq4JWtwJAF3,html-slider-response
comprehension,5efdfd4102ed42293e0c5ad1,600d35ce44c4634c0e62b973,sitting,2436,100,B,otherGroup,1,12,121133,JP4KRrdASPaZ6Yooo,QzpwtyuzRYiem3fSe,html-slider-response
comprehension,5eafef786e883d0233b2270a,600d361ca2bd644b801396c9,,4706.340000000637,I consent to participate.,,,,1,49299,,,html-button-response
comprehension,5c639438fe1e9a0001a27f08,600d361a56935a4ec583f402,click the first one from the left,4371,100,catch,catch,0,6,47715,catch,catch,html-slider-response
comprehension,5fc0da1ccfc57d00082b0bbb,600d35d829128c4e88586549,Looks like it has bunny ears,2268,85,E,otherGroup,6,14,118416,jK9WHXtaAGcGZpsZQ,s4iDhxc6wyabMRhgh,html-slider-response
comprehension,5cf101ea48405a0018415d09,600d361529128c4efd9a64b6,It's the priest man holding something in front of him,7566.619999997783,D,D,otherGroup,11,5,57351,pCBFGvhS95qp75Kj2,piYKppHmfjKfbqXgJ,html-button-response
comprehension,5ba8ba00d9c1080001fa4193,600d35cf44c4634c0e62b974,This object looks like a girl sittng and praying.,4623.405000020284,B,B,otherGroup,10,17,118443,76iJQ4QXdyAcYKseZ,up6Jjy6x3SYuzkRrC,html-button-response
comprehension,5754a9daeb80c4000741a7fc,600d3615c1442748528253f3,woman sitting,3979.9050000146963,B,B,otherGroup,2,7,55140,JP4KRrdASPaZ6Yooo,k6aatfn6D3cGqmLKj,html-button-response
comprehension,5d262d647d4eaa0015b02814,600d35d6ba3ac54fa4ccd678,"Sitting down person, looking up/down. Has no ears. Has the back against the right wall.",3146.5799999423325,84,F,ownGroup,17,16,119974,hXJrmsG9Q2uWDXN7T,mGLLgXimwZwoxxH5h,html-slider-response
comprehension,5c639438fe1e9a0001a27f08,600d361a56935a4ec583f402,"A baby wrapped up, or a head and body with no limbs.",2511,H,H,ownGroup,13,7,50229,jK9WHXtaAGcGZpsZQ,6Lw73R2unZvNB2vZE,html-button-response
comprehension,5ba8ba00d9c1080001fa4193,600d35cf44c4634c0e62b974,This object looks like a girl sittng and praying.,1913.890000025276,85,B,otherGroup,10,18,120358,76iJQ4QXdyAcYKseZ,up6Jjy6x3SYuzkRrC,html-slider-response
comprehension,5feb6d490d786d743fec0d09,600d35c751988f4f478305b1,"Triangle on the right side of square head, a little bit deformed",20671.11500003375,B,B,otherGroup,12,13,109778,aLuopkgfJ8GHWfPNP,Q6SRkZJRdjCHvmN38,html-button-response
comprehension,5e8b0bda9b3f3d023001ef7f,600d35f836051a4fe717143b,Someone sitting down WITH bunny ears or Emperor Cuzco,13056.834999995772,E,E,ownGroup,9,5,82973,d9p3wuzB2BQYCy7zP,BGeqchdkvshi65XDN,html-button-response
comprehension,5f59dd330b08970009cfbd00,600d35d9658fd228a26ba710,looks like it is running,3931.4399999566376,G,G,otherGroup,5,15,118840,CbjGXYiEYK62c59ta,ZSJyxZ5G9927jrcXR,html-button-response
comprehension,5ba85a9d032d360001b83177,600d3617edee9f5020301c8e,click the first one from the left,6949.9500000383705,G,catch,catch,0,7,46853,catch,catch,html-button-response
comprehension,5cf101ea48405a0018415d09,600d361529128c4efd9a64b6,It's the priest man holding something in front of him,3115.4199999873526,91,D,otherGroup,11,6,60471,pCBFGvhS95qp75Kj2,piYKppHmfjKfbqXgJ,html-slider-response
comprehension,5e34d1e00770894aef084447,600d36309b60d8409d80c466,"deer from behind, left horn is like square",10878.839999902993,G,G,ownGroup,8,5,30688,CjJsbbMomSi4dHiNp,hPQF45fFkxYyWa9yi,html-button-response
comprehension,5ab8ce6da3ba7a0001b41664,600d35e56737d85026d2c111,click the first one from the left,5527.010000005248,81,catch,catch,0,14,102761,catch,catch,html-slider-response
comprehension,5754a9daeb80c4000741a7fc,600d3615c1442748528253f3,woman sitting,2337.6050000078976,68,B,otherGroup,2,8,57479,JP4KRrdASPaZ6Yooo,k6aatfn6D3cGqmLKj,html-slider-response
comprehension,5d262d647d4eaa0015b02814,600d35d6ba3ac54fa4ccd678,hands up,2495.4450000077486,C,C,otherGroup,2,17,122472,JP4KRrdASPaZ6Yooo,QzpwtyuzRYiem3fSe,html-button-response
comprehension,5c639438fe1e9a0001a27f08,600d361a56935a4ec583f402,"A baby wrapped up, or a head and body with no limbs.",2362,100,H,ownGroup,13,8,52592,jK9WHXtaAGcGZpsZQ,6Lw73R2unZvNB2vZE,html-slider-response
comprehension,5e91ac8949a5ba4de261368c,600d360e28de48289cec979a,standing person with no arms and no legs,8919.400000013411,H,H,otherGroup,8,3,67770,CbjGXYiEYK62c59ta,rQDvXHhRzEAAGu52K,html-button-response
comprehension,5f22bd9b23ef4103aee75eb5,600d362d7a49d54e905a2105,the one that looks like flying with arms spread out,7057.099999999991,C,C,ownGroup,10,9,39178,fbBEYS2xBiuER4yog,yanmYyJbogZxpMhs5,html-button-response
comprehension,5ba8ba00d9c1080001fa4193,600d35cf44c4634c0e62b974,the one that looks like he is flying,3105.855000030715,C,C,ownGroup,8,19,123466,76iJQ4QXdyAcYKseZ,gR2G6xLFF4jLsksxJ,html-button-response
